Subj_idx,Stimulus,Response,Confidence,RT_dec,RT_conf,Trial_in_block
1,2,2,0.8,1.293,1.349,1
1,2,2,0.6,1.982,0.562,2
1,1,1,0.7,1.147,0.653,3
1,2,1,0.8,1.391,1.09,4
1,2,1,0.8,1.209,1.08,5
1,1,1,0.8,1.215,0.607,6
1,1,1,0.8,1.254,0.43,7
1,1,1,0.7,1.202,0.287,8
1,2,2,0.6,1.384,0.587,9
1,1,1,0.8,1.273,0.854,10
1,1,1,0.7,1.309,0.608,11
1,2,2,0.6,1.607,0.735,12
1,1,1,0.9,1.347,1.429,13
1,2,2,0.9,1.287,0.743,14
1,1,1,0.7,1.651,0.892,15
1,2,2,0.8,1.199,1.004,16
1,2,2,0.7,1.35,0.857,17
1,1,1,0.8,1.175,1.711,18
1,1,1,1,1.345,0.916,19
1,2,2,0.9,1.392,0.261,20
1,2,2,0.7,1.607,0.695,21
1,1,2,0.7,1.507,0.621,22
1,1,1,0.7,1.987,0.663,23
1,2,2,0.8,1.397,0.899,24
1,2,2,0.7,1.553,0.647,25
1,2,1,0.7,1.611,0.315,26
1,1,1,0.8,1.253,0.357,27
1,2,2,0.8,1.349,0.552,28
1,1,1,0.8,1.196,0.377,29
1,1,1,0.9,1.216,0.68,30
1,2,1,0.8,1.177,0.865,31
1,1,1,0.7,1.269,0.464,32
1,2,1,0.6,1.284,0.281,33
1,2,2,0.6,1.123,0.384,34
1,2,2,0.7,1.326,0.63,35
1,1,1,0.7,1.304,0.395,36
1,1,1,0.5,1.854,0.35,37
1,1,1,0.6,1.442,0.984,38
1,2,1,0.6,1.337,0.761,39
1,1,1,0.7,1.968,0.536,40
1,1,2,0.7,1.076,0.306,41
1,1,1,0.8,1.135,0.696,42
1,1,1,0.7,1.201,0.558,43
1,2,1,0.8,1.14,0.327,44
1,1,1,0.8,1.24,0.758,45
1,2,2,0.7,1.189,0.584,46
1,2,2,0.8,1.438,0.747,47
1,2,2,0.5,1.852,0.477,48
1,2,2,0.6,1.572,0.388,49
1,1,1,0.6,1.588,0.408,50
1,2,2,0.7,1.174,0.734,51
1,2,2,0.8,1.407,0.471,52
1,1,2,0.6,1.425,0.339,53
1,1,1,0.5,0.873,0.959,54
1,2,1,0.5,1.504,0.315,55
1,1,1,0.6,1.746,0.877,56
1,2,2,0.6,1.64,0.758,57
1,1,2,0.5,0.898,0.677,58
1,1,1,0.5,1.131,0.539,59
1,2,1,0.6,1.322,0.351,60
1,2,2,0.8,1.224,0.579,61
1,1,1,0.6,1.716,0.474,62
1,1,1,0.6,1.304,1.259,63
1,2,2,0.7,1.103,0.706,64
1,1,1,0.6,1.454,0.662,65
1,2,1,0.6,1.204,0.754,66
1,1,1,0.6,1.192,1.054,67
1,2,2,0.8,1.335,0.815,68
1,2,1,0.8,1.481,1.662,69
1,1,1,0.7,1.29,0.402,70
1,2,2,0.6,1.043,0.433,71
1,1,1,0.5,1.442,0.407,72
1,1,1,0.6,1.808,0.28,73
1,2,1,0.6,2.012,0.629,74
1,2,2,0.5,1.486,0.254,75
1,2,1,0.5,1.449,0.17,76
1,1,1,0.9,1.131,0.723,77
1,2,2,0.8,1.487,0.511,78
1,1,1,0.8,1.283,0.816,79
1,1,1,0.9,1.425,0.54,80
1,1,1,0.9,1.075,0.792,81
1,2,1,0.7,1.412,0.5,82
1,1,1,0.8,1.288,0.672,83
1,2,1,0.8,1.177,0.553,84
1,1,1,0.7,1.093,0.245,85
1,2,2,0.7,1.401,0.246,86
1,2,2,0.9,1.349,0.656,87
1,1,1,0.5,1.587,0.55,88
1,1,1,0.9,1.146,0.405,89
1,2,2,0.8,1.273,0.199,90
1,1,1,0.7,1.445,0.277,91
1,2,1,0.6,1.542,0.321,92
1,1,1,0.8,1.125,0.469,93
1,2,2,0.8,1.18,0.366,94
1,2,2,0.7,1.18,0.248,95
1,1,1,0.6,1.4,0.366,96
1,1,1,0.6,0.72,0.423,97
1,1,1,0.6,1.141,0.256,98
1,1,1,0.6,0.727,0.607,99
1,2,2,0.5,1.544,0.531,100
1,2,1,0.6,1.044,0.337,101
1,1,1,0.8,1.354,0.423,1
1,2,2,0.7,1.197,0.619,2
1,2,2,0.7,1.33,0.282,3
1,1,1,0.8,1.027,0.645,4
1,1,1,0.7,0.86,0.366,5
1,2,1,0.8,1.051,0.315,6
1,1,2,0.7,1.228,0.286,7
1,1,1,0.6,1.053,0.253,8
1,2,1,0.7,1.193,0.366,9
1,2,2,0.8,1.156,0.986,10
1,2,2,0.7,1.389,0.593,11
1,1,2,0.7,1.532,0.276,12
1,2,2,0.7,1.216,0.392,13
1,2,1,0.8,1.252,0.364,14
1,2,2,0.8,0.885,0.373,15
1,2,2,0.7,1.076,0.665,16
1,1,1,0.7,1.276,0.522,17
1,1,1,0.8,1.078,0.396,18
1,1,2,0.7,1.215,0.367,19
1,1,2,0.7,1.2,0.55,20
1,1,1,0.6,1.087,0.303,21
1,1,1,0.6,1.342,0.36,22
1,2,2,0.7,1.276,0.234,23
1,2,2,0.7,1.44,0.221,24
1,1,1,0.6,1.598,0.468,25
1,2,2,0.6,1.696,0.552,26
1,2,2,0.6,1.559,0.26,27
1,1,1,0.8,1.114,0.736,28
1,1,1,0.8,1.649,0.657,29
1,2,1,0.6,1.554,0.208,30
1,1,1,0.8,1.691,0.492,31
1,2,1,0.7,1.459,0.237,32
1,1,1,0.6,1.59,0.297,33
1,2,2,0.9,1.218,0.453,34
1,2,2,0.9,1.203,0.225,35
1,2,2,0.8,1.354,0.44,36
1,1,1,0.7,1.936,0.961,37
1,2,1,0.9,1.696,0.992,38
1,1,1,0.5,1.465,0.812,39
1,2,2,0.7,1.328,0.896,40
1,1,2,0.7,1.374,0.583,41
1,1,1,0.6,1.293,0.182,42
1,2,2,0.7,1.057,0.329,43
1,1,1,0.6,1.08,0.189,44
1,1,1,0.6,0.828,0.502,45
1,2,2,0.8,1.09,0.722,46
1,2,2,0.7,1.105,0.379,47
1,2,2,0.7,1.172,0.652,48
1,1,1,0.6,1.131,0.219,49
1,1,1,0.6,1.364,0.29,50
1,2,2,0.7,1.059,0.749,51
1,1,2,0.6,1.158,0.244,52
1,2,2,0.7,0.914,2.384,53
1,2,2,0.8,1.093,0.428,54
1,1,2,0.8,1.611,0.411,55
1,2,2,0.7,1.3,0.343,56
1,1,1,0.6,1.12,0.333,57
1,1,2,0.6,1.392,0.494,58
1,2,2,0.8,0.834,0.807,59
1,2,2,0.7,1.075,0.481,60
1,1,2,0.7,1.279,0.333,61
1,1,2,0.6,1.691,0.483,62
1,1,1,0.8,1.391,0.418,63
1,2,2,0.9,0.896,0.76,64
1,1,1,0.8,1.287,0.231,65
1,2,2,0.8,1.046,0.397,66
1,2,2,0.9,1.092,0.644,67
1,1,2,0.8,1.381,0.32,68
1,1,2,0.6,1.991,0.716,69
1,2,2,0.7,1.077,0.483,70
1,2,1,0.5,1.521,0.351,71
1,2,2,0.9,1.173,0.309,72
1,1,1,0.8,1.064,0.243,73
1,2,2,0.7,1.186,0.637,74
1,1,1,0.6,1.16,0.742,75
1,2,2,0.6,1.156,0.402,76
1,1,1,0.8,1.086,0.806,77
1,1,1,0.7,1.613,0.557,78
1,2,1,0.7,1.299,0.59,79
1,2,1,0.8,1.244,0.332,80
1,2,1,0.7,1.851,0.795,81
1,1,1,0.5,1.861,1.111,82
1,1,1,0.6,1.705,0.236,83
1,1,1,0.6,1.335,0.792,84
1,1,1,0.6,1.139,0.246,85
1,2,2,0.6,0.994,0.263,86
1,2,1,0.6,1.019,0.254,87
1,1,1,0.6,0.852,0.404,88
1,2,2,0.9,1.434,0.656,89
1,1,1,0.7,1.865,0.692,90
1,2,1,0.6,1.795,0.305,91
1,1,1,0.5,1.598,0.165,92
1,2,2,0.6,1.885,0.694,93
1,2,1,0.8,1.383,0.89,94
1,1,1,0.9,1.406,1.214,95
1,2,2,0.8,1.444,0.221,96
1,2,2,0.8,1.563,1.008,97
1,1,1,0.7,1.236,0.338,98
1,1,1,0.6,1.248,0.497,99
1,1,1,0.6,0.98,0.519,100
1,1,1,0.6,1.16,0.27,101
1,2,1,0.5,2.226,0.819,1
1,1,1,0.8,1.114,0.351,2
1,2,2,0.9,1.264,0.163,3
1,2,1,0.7,1.201,0.19,4
1,1,2,0.6,1.272,0.205,5
1,2,2,0.6,1.025,0.443,6
1,2,2,0.8,0.89,0.746,7
1,2,2,0.7,0.865,0.515,8
1,1,1,0.6,1.031,0.322,9
1,1,1,0.8,1.803,0.833,10
1,1,1,0.8,1.111,0.477,11
1,2,1,0.6,1.555,0.376,12
1,1,1,0.9,1.086,1.087,13
1,2,2,0.9,1.219,1.158,14
1,1,1,0.9,1.063,1.434,15
1,1,1,0.8,1.174,0.822,16
1,1,1,0.7,1.052,0.829,17
1,2,2,0.7,1.067,0.797,18
1,1,1,0.7,1.026,0.756,19
1,2,2,0.8,1.174,1.07,20
1,2,2,0.7,1.3,1.095,21
1,2,1,0.6,1.149,0.92,22
1,2,2,0.8,0.999,1.404,23
1,2,1,0.7,1.313,1.118,24
1,1,1,0.5,1.711,0.789,25
1,1,1,0.9,1.156,0.785,26
1,1,1,0.9,1.25,0.714,27
1,2,2,0.9,1.625,0.836,28
1,1,1,1,1.501,0.904,29
1,2,1,0.6,1.934,0.911,30
1,1,1,0.9,1.037,0.683,31
1,2,2,0.8,1.649,0.786,32
1,1,2,0.7,1.763,0.944,33
1,2,2,0.7,1.572,0.884,34
1,2,2,0.7,1.208,0.777,35
1,1,1,0.7,1.057,0.666,36
1,1,1,0.6,1.365,0.854,37
1,2,2,0.6,1.67,0.642,38
1,1,1,0.5,1.619,1.094,39
1,1,1,0.6,2.178,0.717,40
1,1,1,0.6,1.662,0.849,41
1,2,2,0.6,1.512,1.253,42
1,1,1,0.7,1.386,0.86,43
1,2,1,0.6,1.757,2.747,44
1,2,2,0.7,1.949,0.744,45
1,2,2,0.7,1.327,0.927,46
1,2,1,0.7,1.117,0.787,47
1,2,2,0.7,1.302,0.785,48
1,2,1,0.6,1.299,0.733,49
1,1,1,0.6,1.174,0.911,50
1,2,2,0.6,0.72,0.864,51
1,1,1,0.6,1.244,0.826,52
1,1,1,1,1.12,1.053,53
1,1,1,0.9,1.123,0.833,54
1,1,1,0.9,1.309,0.72,55
1,2,2,0.7,1.433,0.894,56
1,1,1,0.7,1.168,0.888,57
1,2,2,0.8,1.172,0.78,58
1,2,2,0.7,1.33,1.251,59
1,1,1,0.7,1.166,0.799,60
1,1,1,0.7,0.962,0.856,61
1,2,2,0.8,1.092,0.692,62
1,1,1,0.7,1.434,0.76,63
1,2,2,0.7,1.199,0.964,64
1,1,1,0.6,1.621,0.784,65
1,1,1,0.9,1.137,0.673,66
1,2,2,0.7,2.066,0.821,67
1,2,2,0.7,1.126,0.815,68
1,2,2,0.6,1.12,0.765,69
1,1,1,0.6,1.041,0.678,70
1,1,1,0.6,1.045,0.741,71
1,2,1,0.6,1.143,0.825,72
1,1,1,0.7,1.018,0.917,73
1,1,1,0.6,1.228,0.79,74
1,2,2,0.6,1.179,0.933,75
1,2,1,0.7,1.289,0.753,76
1,2,2,0.6,1.146,0.877,77
1,1,1,0.6,1.175,0.791,78
1,2,2,0.6,1.037,0.763,79
1,2,2,0.8,1.052,0.708,80
1,1,1,0.9,0.885,0.717,81
1,2,1,0.9,1.164,0.756,82
1,1,1,0.9,0.984,0.642,83
1,2,2,0.8,0.814,2.311,84
1,1,1,0.9,0.859,0.973,85
1,1,1,0.9,0.996,0.666,86
1,2,1,0.8,1.568,0.728,87
1,1,1,0.7,0.988,0.871,88
1,1,1,0.7,4.449,0.591,89
1,1,1,0.7,1.024,0.77,90
1,2,2,0.7,1.369,0.777,91
1,1,1,0.8,1.579,0.709,92
1,2,2,0.7,1.972,0.749,93
1,2,2,0.6,1.291,0.803,94
1,2,2,0.6,1.142,0.801,95
1,1,1,0.8,1.133,0.741,96
1,1,1,0.7,1.086,0.871,97
1,1,1,0.8,1.09,0.707,98
1,1,2,0.7,1.1,1.358,99
1,2,2,0.7,1.037,0.802,100
1,2,1,0.6,1.366,0.823,101
1,2,1,0.9,1.165,0.637,1
1,2,1,0.7,1.502,0.769,2
1,2,2,0.7,1.13,0.954,3
1,1,1,0.7,1.15,1.881,4
1,1,2,0.7,1.664,1.051,5
1,1,1,0.7,1.269,1.103,6
1,1,2,0.7,1.128,1.049,7
1,2,2,0.7,1.114,0.831,8
1,2,2,0.7,0.947,1.046,9
1,1,1,0.5,1.983,0.706,10
1,2,2,0.8,1.065,0.843,11
1,2,2,0.7,1.202,0.975,12
1,2,1,0.7,1.081,1.63,13
1,2,2,0.9,0.963,0.696,14
1,1,1,0.8,1.129,0.761,15
1,1,1,0.7,1.24,0.749,16
1,1,1,0.7,1.065,1.132,17
1,1,1,0.7,1.131,1.218,18
1,2,2,0.9,1.028,1.143,19
1,1,2,0.8,1.075,1.288,20
1,1,1,0.5,1.709,0.847,21
1,1,2,0.6,1.121,0.91,22
1,2,2,0.7,1.135,1.167,23
1,2,2,0.7,1.027,0.926,24
1,2,2,0.7,1.506,1.029,25
1,2,2,0.6,1.363,1.065,26
1,1,1,0.6,1.148,1.023,27
1,2,2,0.8,0.886,0.814,28
1,2,2,0.9,1.052,0.892,29
1,1,1,0.7,1.539,0.918,30
1,1,1,0.8,1.048,1.216,31
1,2,2,0.8,1.156,1.321,32
1,1,1,0.7,1.08,1.109,33
1,1,1,0.7,1.028,0.847,34
1,2,2,0.9,1.17,1.426,35
1,2,2,0.8,1.23,0.801,36
1,1,1,0.7,1.109,0.76,37
1,1,1,0.7,1.207,0.742,38
1,2,2,0.6,1.45,0.898,39
1,1,2,0.6,1.119,0.924,40
1,2,2,0.6,0.923,1.008,41
1,2,2,0.6,0.812,1.068,42
1,1,1,0.7,0.837,0.93,43
1,2,1,0.6,1.094,0.751,44
1,1,1,0.6,1.048,0.856,45
1,1,2,0.6,0.796,0.889,46
1,2,2,0.6,0.685,0.877,47
1,1,1,0.6,0.889,0.929,48
1,2,2,0.7,0.938,0.789,49
1,1,1,0.9,0.998,0.771,50
1,1,1,0.8,1.09,1.122,51
1,2,2,0.8,1.086,0.742,52
1,2,2,0.6,1.812,1.245,53
1,1,1,0.6,1.438,0.827,54
1,2,2,0.7,1.255,1.095,55
1,2,2,0.8,1.148,0.862,56
1,1,1,0.7,1.469,3.896,57
1,2,2,0.6,1.335,0.768,58
1,2,2,0.8,1.054,0.63,59
1,1,1,1,1.008,0.952,60
1,1,1,1,0.995,0.633,61
1,1,1,1,0.967,0.871,62
1,2,1,0.7,1.062,0.833,63
1,1,1,0.7,1.026,1.221,64
1,2,1,0.6,1.116,1.145,65
1,1,1,0.9,1.252,0.973,66
1,2,1,0.6,1.382,0.817,67
1,2,1,0.5,1.543,0.762,68
1,2,2,0.9,1.473,0.999,69
1,1,1,0.8,1.413,1.005,70
1,2,1,0.8,1.174,1.159,71
1,1,1,0.9,1.086,0.669,72
1,1,1,0.9,1.164,0.602,73
1,1,1,0.8,1.048,0.728,74
1,2,2,0.5,1.874,0.687,75
1,1,1,0.7,1.024,0.683,76
1,2,2,0.8,1.359,0.644,77
1,2,1,0.7,1.061,0.72,78
1,2,2,0.8,1.071,0.778,79
1,1,1,0.8,1.038,0.691,80
1,1,1,0.7,0.849,0.769,81
1,1,1,0.6,0.72,0.931,82
1,2,2,0.8,0.809,0.753,83
1,1,1,0.7,1.322,0.648,84
1,1,1,0.6,0.601,0.902,85
1,2,2,0.7,0.639,0.884,86
1,2,1,0.6,1.701,0.801,87
1,2,2,0.6,0.735,0.831,88
1,1,1,0.6,0.638,0.931,89
1,2,2,0.6,0.788,0.783,90
1,2,1,0.8,1.229,5.464,91
1,1,1,0.7,1.598,0.771,92
1,1,1,0.9,0.77,0.706,93
1,1,1,0.8,1.131,0.723,94
1,2,2,0.6,1.249,0.953,95
1,1,1,0.6,1.045,0.654,96
1,2,1,0.6,1.172,0.724,97
1,2,1,0.6,0.891,0.819,98
1,1,1,0.6,1.052,0.628,99
1,2,1,0.6,0.757,0.699,100
1,2,1,0.7,1.123,0.441,1
1,2,1,0.7,0.647,0.599,2
1,1,1,0.7,0.632,0.517,3
1,1,1,0.7,0.721,0.415,4
1,1,1,0.7,0.692,0.501,5
1,2,1,0.6,1.416,0.281,6
1,1,1,0.8,1.167,0.207,7
1,2,1,0.7,1.464,0.523,8
1,1,1,0.9,1.543,1.001,9
1,2,1,0.8,1.235,0.392,10
1,2,1,0.6,0.889,0.994,11
1,1,1,0.5,0.992,0.254,12
1,1,1,0.6,1.26,0.479,13
1,2,1,0.7,0.811,1.451,14
1,2,1,0.6,1.058,0.693,15
1,1,1,0.6,0.989,0.864,16
1,2,1,0.7,1.103,0.881,17
1,1,1,0.6,1.016,0.472,18
1,2,2,0.7,1.015,0.358,19
1,1,1,0.9,0.823,1.162,20
1,1,1,0.9,1.035,0.753,21
1,1,1,0.8,0.983,0.322,22
1,2,1,0.7,0.929,0.656,23
1,1,1,0.9,0.932,0.589,24
1,1,1,0.8,0.938,2.358,25
1,2,2,0.7,0.858,0.482,26
1,2,1,0.9,0.726,0.726,27
1,2,1,0.6,0.945,0.668,28
1,1,1,0.9,0.752,0.957,29
1,1,1,0.8,0.999,0.588,30
1,1,1,0.8,1.301,1.2,31
1,1,1,0.7,0.911,0.922,32
1,2,2,0.8,1.267,1.422,33
1,2,1,0.8,0.842,0.607,34
1,2,1,0.5,0.778,0.821,35
1,1,1,0.7,1.108,0.575,36
1,2,2,0.8,1.402,0.432,37
1,1,1,0.7,0.787,0.598,38
1,2,2,0.8,0.756,0.386,39
1,2,1,0.7,0.696,0.56,40
1,1,1,0.6,0.668,0.287,41
1,1,1,0.8,1.189,0.632,42
1,2,2,0.9,1.158,1.364,43
1,2,2,0.8,0.904,0.474,44
1,1,1,1,0.916,0.993,45
1,2,2,0.7,0.933,0.533,46
1,1,1,0.7,1.003,0.889,47
1,1,1,0.9,2.036,8.538,48
1,2,1,0.5,1.913,0.215,49
1,1,1,0.8,0.765,0.741,50
1,2,2,0.7,1.076,0.761,51
1,2,1,0.7,1.299,0.933,52
1,1,1,0.8,0.878,1.324,53
1,2,2,0.8,1.154,0.672,54
1,2,2,0.8,1.14,0.814,55
1,2,1,0.6,1.73,0.73,56
1,1,1,0.6,1.076,0.305,57
1,1,1,0.6,1.103,0.402,58
1,1,1,0.5,1.568,0.177,59
1,2,2,0.8,1.044,0.482,60
1,1,1,0.6,0.845,0.597,61
1,2,2,0.6,0.788,0.422,62
1,2,2,0.8,0.767,0.759,63
1,1,1,0.8,1.195,1.024,64
1,2,1,0.7,1.034,0.623,65
1,1,1,0.7,0.729,1.104,66
1,1,1,0.8,0.922,0.759,67
1,1,2,0.8,1.147,0.414,68
1,2,2,0.7,0.881,0.479,69
1,2,1,0.8,1.573,1.662,70
1,1,2,0.8,0.964,0.458,71
1,1,1,0.9,1.232,0.669,72
1,2,2,0.9,1.511,2.642,73
1,1,1,0.8,1.094,0.686,74
1,2,1,0.6,1.348,0.815,75
1,2,1,0.6,1.019,0.574,76
1,1,1,0.7,1.053,0.669,77
1,1,2,0.6,1.086,0.326,78
1,1,1,0.9,1.116,0.41,79
1,2,2,0.8,1.171,0.267,80
1,1,1,0.7,1.076,0.562,81
1,2,1,0.6,1.17,0.331,82
1,1,1,0.6,1.27,0.633,83
1,2,1,0.7,1.111,0.253,84
1,2,2,0.6,1.085,0.566,85
1,1,1,0.8,1.309,0.919,86
1,1,1,0.8,1.373,0.414,87
1,2,2,0.6,1.399,0.452,88
1,1,1,0.8,0.854,0.477,89
1,2,1,0.7,1.14,0.695,90
1,2,1,0.6,0.835,0.448,91
1,2,2,0.9,1.178,1.121,92
1,1,1,0.8,1.779,0.67,93
1,2,1,0.7,1.817,0.429,94
1,1,2,0.6,1.28,0.622,95
1,2,1,0.6,1.06,0.303,96
1,1,1,0.8,0.699,0.958,97
1,2,1,0.8,0.894,0.647,98
1,1,1,0.8,1.296,0.464,99
1,2,2,0.8,1.35,0.289,100
1,1,1,0.8,1.299,0.485,101
1,1,1,0.9,1.192,0.47,102
1,1,1,0.9,0.783,0.874,103
1,1,1,0.9,0.942,0.248,104
1,2,1,0.7,1.366,0.415,105
1,2,1,0.6,1.861,0.456,106
1,1,1,0.9,1.164,1.17,107
1,2,2,0.7,1.088,0.568,108
1,2,2,0.8,1.103,0.706,109
2,2,2,0.7,0.973,0.477,1
2,2,2,0.8,1.574,0.334,2
2,2,1,0.8,1.759,0.597,3
2,1,1,0.8,0.783,0.297,4
2,2,1,0.7,0.802,0.56,5
2,1,2,0.9,0.867,0.238,6
2,1,1,0.8,0.981,0.527,7
2,1,1,0.8,0.656,0.344,8
2,1,1,0.8,1.172,0.452,9
2,1,1,0.7,0.962,0.504,10
2,2,1,0.7,0.967,0.478,11
2,2,1,0.7,1.027,0.325,12
2,1,1,0.7,0.739,0.438,13
2,1,1,0.8,0.922,0.407,14
2,2,2,0.8,1.005,0.358,15
2,2,1,0.8,0.764,0.513,16
2,1,1,0.7,1.084,0.533,17
2,2,1,0.7,0.992,0.638,18
2,2,1,0.8,1.359,0.316,19
2,1,1,0.8,1.28,0.614,20
2,2,2,0.8,1.029,0.431,21
2,1,1,0.7,1.238,0.403,22
2,1,1,0.8,0.94,0.575,23
2,2,2,0.9,1.026,0.286,24
2,2,1,0.8,0.956,0.545,25
2,2,2,0.9,0.835,0.272,26
2,1,1,0.7,0.998,0.436,27
2,2,2,0.9,0.655,0.424,28
2,1,2,0.7,1.318,0.403,29
2,1,2,0.8,1.106,0.469,30
2,2,2,0.8,1.432,0.222,31
2,1,1,0.7,0.962,0.463,32
2,1,1,0.7,0.877,0.618,33
2,2,2,0.8,0.974,0.327,34
2,1,2,0.8,1.261,0.248,35
2,2,1,0.8,1.169,0.281,36
2,1,2,0.8,1.149,0.296,37
2,1,2,0.8,0.788,0.334,38
2,2,2,0.8,1.056,0.408,39
2,2,2,0.8,0.992,0.278,40
2,2,2,0.8,0.815,0.359,41
2,2,2,0.8,0.693,0.35,42
2,1,2,0.8,1.319,0.284,43
2,1,1,0.7,1.506,0.365,44
2,2,1,0.8,1.041,0.39,45
2,2,1,0.8,1.039,0.261,46
2,1,1,0.8,1.038,0.284,47
2,1,1,0.8,0.986,0.301,48
2,2,1,0.7,1.018,0.389,49
2,2,2,0.9,1.094,0.414,50
2,1,2,0.9,1.064,0.41,51
2,2,2,0.8,0.851,0.555,52
2,1,1,0.8,0.869,0.4,53
2,1,1,0.8,0.737,0.337,54
2,2,2,0.9,0.93,0.329,55
2,1,1,0.8,0.976,0.296,56
2,1,1,0.8,0.953,0.391,57
2,1,2,0.7,1.112,0.437,58
2,1,2,0.8,1.172,0.732,59
2,1,1,0.8,1.186,0.341,60
2,2,1,0.7,1.305,0.588,61
2,2,1,0.7,0.904,0.362,62
2,2,2,0.8,2.072,0.734,63
2,2,2,0.8,0.72,0.28,64
2,1,1,0.8,0.808,0.537,65
2,1,2,0.7,0.922,0.415,66
2,2,2,0.8,0.912,0.23,67
2,2,2,0.8,0.745,0.3,68
2,1,1,0.7,0.77,0.579,69
2,1,1,0.8,0.985,0.892,70
2,2,1,0.7,0.624,1.266,71
2,2,2,0.8,1.001,0.287,72
2,2,2,0.8,0.802,0.415,73
2,1,1,0.8,0.91,0.384,74
2,1,2,0.7,0.748,0.543,75
2,2,2,0.8,0.994,0.32,76
2,1,2,0.7,1.076,0.617,77
2,2,2,0.9,0.912,0.853,78
2,1,1,0.7,0.897,0.425,79
2,2,2,0.8,1.069,0.544,80
2,1,1,0.8,1.07,0.273,81
2,1,2,0.8,1.023,0.458,82
2,2,1,0.7,0.76,0.47,83
2,1,1,0.6,1.511,0.964,84
2,2,2,0.8,0.971,0.531,85
2,2,2,0.9,1.282,1.015,86
2,2,1,0.7,1.184,0.355,87
2,1,1,0.8,0.982,0.329,88
2,1,1,0.7,1.165,0.469,89
2,2,2,0.8,0.876,0.313,90
2,2,1,0.8,1.159,0.268,91
2,2,2,0.8,0.645,0.261,92
2,1,1,0.8,0.689,0.361,93
2,1,1,0.8,0.917,0.418,94
2,1,1,0.8,0.777,0.264,95
2,2,1,0.8,0.599,0.372,96
2,2,2,0.8,0.848,0.304,97
2,1,1,0.8,1.046,0.359,98
2,1,1,0.8,0.904,0.282,99
2,1,2,0.7,0.947,0.518,100
2,2,2,0.8,1.076,0.45,101
2,1,2,0.7,1.157,0.699,1
2,2,2,0.9,0.761,0.263,2
2,2,1,0.8,0.997,0.266,3
2,1,2,0.8,0.859,0.366,4
2,2,2,0.8,0.751,0.325,5
2,1,2,0.7,0.694,0.742,6
2,2,2,0.7,0.694,0.359,7
2,1,2,0.8,0.578,0.309,8
2,2,2,0.8,0.598,0.34,9
2,2,2,0.8,0.559,0.436,10
2,1,1,0.8,0.883,0.193,11
2,1,2,0.8,1.093,0.269,12
2,2,2,0.8,0.72,0.237,13
2,2,1,0.8,1.3,0.223,14
2,1,1,0.8,0.685,0.285,15
2,1,2,0.8,0.921,0.366,16
2,2,2,0.8,0.856,0.24,17
2,1,2,0.8,0.774,0.246,18
2,2,2,0.8,0.58,0.302,19
2,1,2,0.7,0.725,0.741,20
2,2,2,0.8,1.625,0.5,21
2,2,1,0.7,1.069,0.376,22
2,1,2,0.7,1.076,0.425,23
2,1,1,0.9,0.989,1.064,24
2,2,2,0.7,1.1,0.326,25
2,2,2,0.8,0.832,0.309,26
2,1,2,0.7,1.19,0.409,27
2,1,1,0.7,0.757,0.738,28
2,2,1,0.8,1.014,0.374,29
2,1,1,0.8,0.732,0.372,30
2,2,2,0.9,0.848,0.504,31
2,1,2,0.8,3.316,0.698,32
2,2,1,0.8,0.792,0.35,33
2,2,2,0.8,0.513,0.343,34
2,1,1,0.8,0.565,0.42,35
2,2,2,0.8,0.641,0.254,36
2,2,1,0.8,0.878,0.268,37
2,2,2,0.8,0.781,0.24,38
2,1,2,0.8,0.969,0.313,39
2,1,2,0.8,0.557,0.25,40
2,1,1,0.8,0.763,0.297,41
2,2,1,0.8,0.887,0.271,42
2,1,1,0.8,0.96,0.277,43
2,1,1,0.8,0.948,0.383,44
2,2,1,0.8,0.972,0.413,45
2,1,1,0.8,0.545,0.363,46
2,2,1,0.8,1.175,0.239,47
2,1,1,0.8,0.762,0.328,48
2,2,2,0.8,0.92,0.462,49
2,2,2,0.8,1.034,0.335,50
2,1,1,0.8,0.792,0.342,51
2,2,1,0.8,1.111,0.34,52
2,1,1,0.8,0.72,0.272,53
2,2,2,0.8,0.884,0.433,54
2,1,1,0.8,1.191,0.189,55
2,2,2,0.8,0.798,0.42,56
2,1,2,0.7,0.999,0.341,57
2,1,1,0.9,0.957,0.723,58
2,2,2,0.7,0.988,0.407,59
2,2,1,0.7,1.064,0.563,60
2,1,1,0.9,0.905,0.635,61
2,2,2,0.8,0.962,0.839,62
2,2,2,0.8,0.891,0.395,63
2,1,1,0.8,0.527,0.311,64
2,1,2,0.7,0.643,0.512,65
2,2,1,0.8,0.46,0.391,66
2,1,1,0.8,0.885,0.237,67
2,1,2,0.7,0.584,1.251,68
2,1,1,0.8,0.477,0.618,69
2,1,1,0.8,0.72,0.387,70
2,2,2,0.8,0.772,0.332,71
2,1,1,0.8,0.637,0.322,72
2,2,1,0.8,0.945,0.34,73
2,2,2,0.7,0.94,0.423,74
2,2,2,0.7,0.899,0.454,75
2,1,1,0.8,0.631,0.37,76
2,1,1,0.8,0.523,0.352,77
2,1,1,0.8,0.763,0.313,78
2,2,1,0.8,0.644,0.322,79
2,1,1,0.8,0.538,0.309,80
2,2,1,0.8,0.72,0.366,81
2,2,1,0.8,0.559,0.7,82
2,2,1,0.8,1.073,0.421,83
2,1,1,0.8,0.919,0.356,84
2,2,2,0.8,1.176,0.304,85
2,1,1,0.8,0.959,0.46,86
2,1,1,0.7,1.397,0.627,87
2,2,2,0.9,1.273,0.439,88
2,2,2,0.9,0.866,0.293,89
2,1,1,0.7,0.969,0.728,90
2,2,2,0.8,0.948,0.359,91
2,2,1,0.8,1.07,0.472,92
2,2,2,0.8,0.772,0.508,93
2,1,1,0.7,1.133,0.549,94
2,1,1,0.7,1.375,0.319,95
2,1,2,0.8,0.957,0.523,96
2,1,1,0.8,0.787,0.342,97
2,2,1,1,1.039,0.773,98
2,2,2,0.8,0.936,0.576,99
2,2,2,0.8,0.761,0.383,100
2,1,2,0.8,1.096,0.312,101
2,1,2,0.8,0.956,0.385,1
2,2,2,0.8,0.748,0.287,2
2,1,2,0.8,1.048,0.321,3
2,2,1,0.7,1.066,0.364,4
2,1,1,0.8,1.026,0.333,5
2,2,2,0.8,0.921,0.278,6
2,2,1,0.8,0.821,0.271,7
2,1,2,0.8,0.894,0.174,8
2,1,1,0.8,1.028,0.223,9
2,2,2,0.8,0.73,0.21,10
2,2,2,0.8,1.116,0.241,11
2,2,2,0.8,0.773,0.188,12
2,1,1,0.8,1.117,0.195,13
2,1,2,0.8,0.772,0.172,14
2,2,1,0.8,0.856,0.216,15
2,2,2,0.8,0.742,0.233,16
2,1,1,0.8,0.762,0.191,17
2,1,2,0.8,1.013,0.134,18
2,1,2,0.8,1.075,0.193,19
2,2,2,0.8,0.794,0.176,20
2,1,2,0.8,0.771,0.227,21
2,2,2,0.8,0.841,0.583,22
2,1,2,0.7,1.056,0.296,23
2,2,1,0.8,0.636,0.266,24
2,1,2,0.8,0.92,0.453,25
2,2,2,0.8,0.694,0.214,26
2,2,1,0.7,0.664,0.434,27
2,1,1,0.8,1.337,0.201,28
2,2,2,0.8,0.967,0.312,29
2,1,1,0.8,0.894,0.342,30
2,2,2,0.8,0.868,0.167,31
2,2,2,0.8,1.197,0.139,32
2,1,1,0.8,0.695,0.206,33
2,1,1,0.8,0.858,0.141,34
2,2,1,0.8,0.864,0.235,35
2,2,2,0.8,0.77,0.122,36
2,1,1,0.8,0.883,0.128,37
2,1,1,0.8,0.809,0.153,38
2,1,1,0.8,1.007,0.216,39
2,2,1,0.8,0.808,0.209,40
2,1,2,0.8,0.746,0.22,41
2,2,2,0.8,0.725,0.365,42
2,1,2,0.8,0.726,0.294,43
2,2,2,0.8,0.602,0.239,44
2,2,2,0.8,0.493,0.222,45
2,1,2,0.8,0.537,0.265,46
2,1,2,0.8,0.506,0.268,47
2,1,2,0.8,0.835,0.36,48
2,1,2,0.8,0.614,0.223,49
2,2,2,0.8,0.522,0.264,50
2,1,2,0.8,0.72,0.224,51
2,2,2,0.8,0.657,0.249,52
2,2,2,0.8,0.536,0.272,53
2,2,2,0.8,0.553,0.253,54
2,1,2,0.8,0.591,0.249,55
2,1,2,0.8,0.613,0.277,56
2,2,2,0.8,0.625,0.235,57
2,2,2,0.8,0.609,0.25,58
2,2,2,0.8,0.72,0.213,59
2,1,1,0.8,0.841,0.231,60
2,2,2,0.8,0.764,0.229,61
2,1,1,0.8,0.728,0.672,62
2,1,1,0.7,0.823,0.49,63
2,1,2,0.7,0.907,0.502,64
2,2,2,0.8,0.77,0.33,65
2,1,1,0.8,0.968,0.624,66
2,2,2,0.8,0.756,0.202,67
2,2,1,0.8,0.627,0.246,68
2,2,1,0.8,0.739,0.246,69
2,1,2,0.8,0.962,0.719,70
2,1,1,0.9,0.643,0.464,71
2,1,2,0.8,0.74,0.575,72
2,2,2,0.8,1.106,0.309,73
2,1,1,0.7,0.948,0.542,74
2,2,2,0.8,0.789,0.288,75
2,1,1,0.7,0.72,0.371,76
2,2,2,0.8,1.02,0.255,77
2,2,2,0.8,0.821,0.352,78
2,1,2,0.8,0.633,0.238,79
2,1,1,0.8,0.639,0.228,80
2,1,2,0.8,0.693,0.422,81
2,2,2,0.8,0.866,0.476,82
2,2,1,0.7,1.402,0.456,83
2,2,2,0.8,0.94,0.447,84
2,1,1,0.8,0.8,0.261,85
2,2,2,0.8,0.808,0.257,86
2,2,2,0.8,0.593,0.351,87
2,2,2,0.8,0.906,0.19,88
2,1,1,0.8,0.678,0.219,89
2,1,1,0.8,0.538,0.25,90
2,2,2,0.8,0.64,0.222,91
2,1,1,0.8,0.73,0.225,92
2,1,1,0.8,0.594,0.215,93
2,2,2,0.8,0.635,0.28,94
2,1,1,0.8,0.72,0.225,95
2,1,1,0.8,0.567,0.407,96
2,2,2,0.8,0.67,0.288,97
2,2,1,0.8,0.697,0.281,98
2,1,1,0.8,0.648,0.28,99
2,1,2,0.8,0.779,0.302,100
2,2,2,0.8,0.781,0.271,101
2,2,1,0.9,0.811,0.859,1
2,2,2,0.8,0.804,0.298,2
2,1,1,0.8,0.635,0.216,3
2,1,2,0.8,0.628,0.223,4
2,2,2,0.8,0.655,0.255,5
2,1,1,0.8,0.8,0.302,6
2,1,2,0.8,0.69,0.257,7
2,2,2,0.8,0.89,0.322,8
2,2,2,0.8,0.761,0.198,9
2,2,2,0.8,0.588,0.223,10
2,2,2,0.8,0.971,0.163,11
2,2,2,0.8,1.02,0.199,12
2,1,1,0.8,0.8,0.157,13
2,1,2,0.8,0.899,0.19,14
2,2,2,0.8,1.063,0.177,15
2,1,1,0.8,0.779,0.173,16
2,1,1,0.8,0.851,0.155,17
2,2,2,0.8,1.1,0.128,18
2,1,1,0.8,1.048,0.136,19
2,2,2,0.8,0.761,0.199,20
2,1,2,0.8,1.581,0.112,21
2,1,2,0.8,0.905,0.14,22
2,2,1,0.8,0.738,0.14,23
2,2,1,0.8,0.853,0.214,24
2,1,1,0.8,0.98,0.31,25
2,2,2,0.8,0.871,0.109,26
2,1,1,0.8,0.803,0.393,27
2,1,1,0.8,1.166,0.199,28
2,2,2,0.8,0.829,0.152,29
2,2,2,0.8,0.955,0.145,30
2,1,2,0.8,0.553,0.159,31
2,2,2,0.8,0.52,0.197,32
2,1,2,0.8,0.598,0.22,33
2,1,2,0.8,0.762,0.191,34
2,1,1,0.8,0.816,0.256,35
2,1,2,0.8,0.468,0.207,36
2,2,2,0.8,0.655,0.199,37
2,2,2,0.8,0.549,0.2,38
2,2,2,0.8,0.526,0.23,39
2,2,2,0.8,0.559,0.197,40
2,1,2,0.8,0.651,0.187,41
2,2,1,0.8,0.628,0.151,42
2,2,2,0.8,1.063,0.138,43
2,2,1,0.8,0.776,0.161,44
2,1,1,0.8,0.967,0.207,45
2,1,1,0.8,0.72,0.158,46
2,2,1,0.8,0.796,0.169,47
2,1,1,0.6,0.805,1.045,48
2,1,1,0.8,1.121,0.527,49
2,2,2,0.8,0.722,0.2,50
2,2,2,0.7,1.069,0.609,51
2,1,1,0.7,0.879,0.405,52
2,1,2,0.7,0.985,0.371,53
2,2,2,0.8,1.209,0.249,54
2,1,1,0.8,0.978,0.573,55
2,1,1,0.7,0.939,0.575,56
2,2,2,0.9,1.421,0.616,57
2,2,2,0.9,0.929,0.329,58
2,1,1,0.7,1.175,0.319,59
2,2,2,0.9,0.638,0.331,60
2,2,2,0.9,0.983,0.473,61
2,2,2,0.9,0.773,0.549,62
2,1,1,0.9,0.849,0.449,63
2,1,2,0.9,0.743,0.298,64
2,1,2,0.9,0.827,0.278,65
2,1,1,0.9,0.67,0.553,66
2,2,1,0.9,0.747,0.565,67
2,1,1,0.8,0.942,0.761,68
2,2,2,0.9,0.677,0.29,69
2,2,1,0.8,0.995,0.4,70
2,2,2,0.8,0.633,0.631,71
2,1,1,0.9,0.869,0.488,72
2,1,1,0.7,0.881,0.582,73
2,1,2,0.9,0.743,0.29,74
2,2,1,0.8,0.66,0.518,75
2,1,2,0.8,0.825,0.332,76
2,2,1,0.8,0.965,0.325,77
2,1,2,0.8,0.604,0.257,78
2,2,2,0.8,0.989,0.248,79
2,1,1,0.8,0.667,0.222,80
2,2,2,0.8,0.556,0.186,81
2,2,2,0.8,0.474,0.216,82
2,1,2,0.8,0.534,0.382,83
2,1,1,0.7,0.948,0.303,84
2,2,2,0.8,1.054,0.246,85
2,1,1,0.8,0.633,0.271,86
2,2,1,0.8,1.037,0.482,87
2,1,1,0.8,0.929,0.225,88
2,2,1,0.8,0.692,0.212,89
2,2,2,0.8,0.723,0.224,90
2,2,2,0.8,0.842,0.311,91
2,2,2,0.8,0.602,0.208,92
2,1,2,0.8,0.806,0.198,93
2,2,2,0.8,0.767,0.183,94
2,1,1,0.8,0.822,0.209,95
2,1,1,0.8,1.1,0.191,96
2,1,1,0.8,0.738,0.173,97
2,1,1,0.8,0.72,0.238,98
2,1,1,0.8,0.831,0.178,99
2,1,2,0.8,0.686,0.205,100
2,2,2,0.8,1.196,0.234,1
2,1,1,0.8,0.67,0.28,2
2,2,2,0.8,0.72,0.164,3
2,2,1,0.8,0.815,0.184,4
2,2,1,0.8,0.79,0.297,5
2,2,2,0.8,0.536,0.175,6
2,1,1,0.8,0.723,0.201,7
2,1,1,0.8,0.735,0.246,8
2,2,1,0.8,1.083,0.256,9
2,1,1,0.8,0.977,0.212,10
2,1,1,1,0.621,1.391,11
2,2,2,0.9,0.881,0.558,12
2,2,1,0.8,0.842,0.471,13
2,1,2,0.7,0.829,0.544,14
2,1,2,0.8,0.901,0.287,15
2,2,1,0.8,0.765,0.229,16
2,2,1,0.8,0.769,0.209,17
2,1,1,0.8,0.767,0.263,18
2,2,2,0.8,0.925,0.189,19
2,1,1,0.8,0.745,0.284,20
2,2,1,0.8,0.898,0.253,21
2,1,1,0.8,0.747,0.23,22
2,2,2,0.8,0.684,0.314,23
2,2,1,0.8,0.639,0.221,24
2,2,2,0.8,0.955,0.209,25
2,1,1,0.8,0.623,0.186,26
2,1,1,0.8,0.898,0.294,27
2,1,1,0.8,0.617,0.217,28
2,2,1,0.8,0.658,0.316,29
2,1,1,0.8,0.741,0.2,30
2,2,2,0.8,0.66,0.183,31
2,2,1,0.8,0.72,0.285,32
2,2,1,0.8,0.814,0.262,33
2,1,1,0.8,0.815,0.191,34
2,2,2,0.9,0.899,0.486,35
2,1,1,0.8,0.924,0.241,36
2,1,1,0.9,0.84,0.461,37
2,2,2,0.8,1.105,0.724,38
2,1,1,0.8,0.901,0.264,39
2,2,1,0.8,0.628,0.27,40
2,1,1,0.8,1.167,0.328,41
2,1,2,0.9,0.971,0.636,42
2,2,1,0.8,1.338,0.285,43
2,2,2,0.8,0.982,0.177,44
2,1,1,0.9,1.015,0.591,45
2,1,2,0.8,1.272,0.398,46
2,1,1,0.8,0.924,0.306,47
2,2,2,0.8,0.925,0.237,48
2,1,2,0.7,1.012,0.74,49
2,2,2,0.9,1.136,0.488,50
2,1,1,0.7,1.154,0.519,51
2,2,2,0.8,1.2,0.294,52
2,2,1,0.8,1.001,0.398,53
2,2,1,0.8,1.138,0.141,54
2,1,1,0.8,1.211,0.3,55
2,2,1,0.8,0.935,0.199,56
2,2,1,0.8,0.915,0.216,57
2,1,1,0.8,0.649,0.345,58
2,2,1,0.7,0.796,0.498,59
2,1,1,0.8,0.676,0.241,60
2,1,1,0.8,0.63,0.273,61
2,1,1,0.8,0.64,0.277,62
2,1,2,0.8,0.737,0.177,63
2,2,2,0.8,0.914,0.167,64
2,2,2,0.8,0.741,0.184,65
2,1,2,0.8,0.896,0.209,66
2,2,2,0.8,0.973,0.197,67
2,2,2,0.8,1.013,0.358,68
2,1,2,0.8,0.609,0.185,69
2,2,2,0.8,0.637,0.139,70
2,2,2,0.8,0.798,0.179,71
2,1,1,0.8,0.834,0.151,72
2,2,2,0.8,1.023,0.146,73
2,1,2,0.8,0.921,0.238,74
2,1,2,0.8,0.783,0.242,75
2,1,2,0.8,0.697,0.224,76
2,2,2,0.8,0.644,0.145,77
2,2,2,0.8,0.651,0.146,78
2,1,1,0.8,0.75,0.225,79
2,1,1,0.8,0.746,0.212,80
2,2,2,0.8,0.744,0.179,81
2,2,2,0.8,0.566,0.174,82
2,2,2,0.8,0.652,0.141,83
2,1,1,0.8,0.824,0.195,84
2,1,2,0.8,0.673,0.214,85
2,2,1,0.8,0.72,0.205,86
2,2,2,0.8,0.534,0.15,87
2,1,1,0.8,0.762,0.175,88
2,2,2,0.8,0.674,0.152,89
2,1,2,0.8,0.656,0.169,90
2,2,2,0.8,1.127,0.175,91
2,1,1,0.8,0.672,0.238,92
2,1,2,0.8,0.604,0.217,93
2,1,2,0.8,0.93,0.139,94
2,1,2,0.8,0.779,0.126,95
2,1,1,0.8,0.66,0.207,96
2,2,1,0.8,0.781,0.2,97
2,2,2,0.8,0.542,0.161,98
2,1,2,0.8,0.781,0.159,99
2,2,2,0.8,0.638,0.155,100
2,2,1,0.8,0.631,0.393,101
2,1,1,0.7,0.827,0.59,102
2,2,2,0.8,0.79,0.249,103
2,1,1,0.8,0.861,0.199,104
2,2,1,0.8,0.742,0.168,105
2,1,1,0.8,0.833,0.215,106
2,2,2,0.8,0.68,0.277,107
2,2,2,0.8,0.942,0.209,108
2,1,2,0.8,0.743,0.138,109
3,2,1,0.7,0.535,1.079,1
3,1,1,1,0.507,0.758,2
3,1,1,0.9,0.679,1.22,3
3,1,1,0.9,0.512,0.206,4
3,2,2,1,0.593,0.206,5
3,2,2,1,0.549,0.208,6
3,2,1,0.9,0.619,0.926,7
3,1,2,0.8,0.565,0.421,8
3,1,1,0.8,0.534,0.222,9
3,2,2,0.9,0.652,1.212,10
3,2,1,0.6,1.141,1.544,11
3,2,2,0.7,1.215,2.215,12
3,2,2,0.7,0.697,0.393,13
3,1,1,0.8,0.684,0.673,14
3,1,1,0.9,0.501,0.456,15
3,1,2,0.9,0.591,0.665,16
3,2,2,0.9,0.613,0.189,17
3,1,2,0.9,0.604,0.585,18
3,1,2,0.9,0.72,0.229,19
3,1,1,0.9,0.665,0.163,20
3,1,1,0.9,0.599,0.164,21
3,2,2,0.8,0.671,0.882,22
3,2,2,0.9,1.86,1.19,23
3,2,2,0.8,1.207,0.408,24
3,2,2,0.9,0.494,0.294,25
3,1,1,0.9,0.549,0.519,26
3,1,2,0.6,0.821,1.544,27
3,2,2,1,0.698,0.284,28
3,2,1,0.9,2.596,1.036,29
3,1,1,0.9,1,0.317,30
3,2,1,0.9,1.464,0.875,31
3,1,1,1,0.591,0.429,32
3,2,2,0.9,0.974,0.302,33
3,1,1,0.9,0.652,0.524,34
3,2,2,1,0.488,0.472,35
3,2,1,0.7,1.26,0.543,36
3,2,2,0.9,4.675,1.316,37
3,1,1,0.7,0.946,0.781,38
3,1,1,1,0.617,0.705,39
3,1,1,1,0.643,0.4,40
3,2,1,0.8,0.737,0.681,41
3,1,1,1,0.941,0.471,42
3,2,2,0.9,0.694,1.126,43
3,1,2,0.5,0.577,1.313,44
3,1,1,0.9,0.72,0.659,45
3,2,1,1,0.556,0.673,46
3,1,1,1,0.621,0.792,47
3,2,1,1,0.691,0.387,48
3,1,1,1,0.562,0.263,49
3,1,1,1,0.587,0.23,50
3,2,2,0.8,0.777,1.074,51
3,1,1,0.8,0.605,0.773,52
3,2,2,0.8,0.535,0.375,53
3,2,2,0.5,0.533,5.413,54
3,2,2,0.6,0.543,0.314,55
3,1,2,0.6,1.062,0.385,56
3,2,2,0.6,1.154,0.448,57
3,1,1,0.7,0.641,0.158,58
3,2,1,0.7,0.594,0.207,59
3,2,2,0.8,1.363,0.512,60
3,1,2,0.8,0.647,0.231,61
3,2,1,0.9,0.776,0.24,62
3,1,2,0.9,0.579,0.238,63
3,1,2,0.9,0.49,0.298,64
3,1,2,0.9,0.52,0.333,65
3,2,2,0.8,0.593,0.231,66
3,2,2,0.8,0.541,0.431,67
3,1,2,0.7,1.008,0.377,68
3,1,1,0.7,2.317,2.658,69
3,1,2,0.8,0.698,0.769,70
3,2,2,0.8,0.72,0.315,71
3,2,2,0.8,0.848,0.433,72
3,2,2,0.8,0.541,0.247,73
3,1,2,0.8,1.019,0.326,74
3,2,2,0.8,0.559,0.436,75
3,2,2,0.8,0.412,0.445,76
3,1,2,0.8,0.2,3.611,77
3,1,2,0.7,0.56,0.182,78
3,2,1,0.7,0.932,0.484,79
3,1,1,0.8,0.639,0.317,80
3,2,1,0.9,0.609,0.185,81
3,2,2,0.9,0.727,0.247,82
3,1,1,0.9,0.661,0.216,83
3,1,1,0.9,0.659,0.206,84
3,1,1,0.9,0.751,0.21,85
3,2,1,0.9,0.429,0.167,86
3,2,2,0.6,0.593,1.278,87
3,1,1,0.9,0.594,0.399,88
3,1,1,0.9,1.078,0.307,89
3,2,1,0.9,0.618,0.209,90
3,1,1,0.8,0.759,0.221,91
3,1,1,0.9,0.988,0.199,92
3,2,1,0.9,0.511,0.202,93
3,2,2,0.9,0.678,0.267,94
3,2,1,0.6,0.673,2.399,95
3,1,1,0.9,0.673,0.566,96
3,1,1,0.9,1.018,0.492,97
3,1,1,1,0.654,0.214,98
3,2,1,1,0.79,0.289,99
3,2,1,0.9,0.504,0.434,100
3,2,1,0.6,0.72,1.254,101
3,1,1,1,0.597,1.459,1
3,1,1,1,0.636,0.346,2
3,2,1,1,0.483,0.224,3
3,2,1,0.8,0.493,0.94,4
3,2,2,0.9,0.515,0.44,5
3,1,1,0.9,0.47,0.401,6
3,2,1,0.9,0.546,0.181,7
3,1,1,0.9,0.595,0.672,8
3,1,1,0.9,0.72,0.412,9
3,1,1,1,0.667,0.573,10
3,2,2,0.9,0.558,0.476,11
3,1,1,0.9,0.513,0.319,12
3,1,1,0.9,0.608,0.176,13
3,2,1,0.8,0.721,0.654,14
3,2,2,1,0.482,0.847,15
3,1,2,0.9,0.617,0.76,16
3,1,2,0.7,0.628,0.863,17
3,2,1,0.9,0.544,0.563,18
3,2,1,0.9,0.662,0.233,19
3,2,1,0.9,0.72,0.197,20
3,2,1,0.9,0.526,0.149,21
3,1,1,0.9,0.561,0.151,22
3,1,1,0.9,0.504,0.155,23
3,1,1,0.9,0.572,0.427,24
3,1,1,0.8,0.479,0.116,25
3,2,1,0.9,0.731,0.331,26
3,2,1,0.9,0.819,0.27,27
3,2,2,0.7,0.829,0.431,28
3,1,1,0.7,0.632,0.134,29
3,2,1,0.7,0.467,0.206,30
3,2,1,0.8,0.583,0.178,31
3,2,2,0.9,0.672,0.773,32
3,1,1,0.8,0.615,0.479,33
3,1,1,0.8,0.624,0.195,34
3,1,1,0.8,0.55,0.145,35
3,2,1,0.8,0.391,0.122,36
3,1,1,0.8,0.474,0.128,37
3,2,2,0.7,0.867,0.518,38
3,2,1,0.7,0.599,0.173,39
3,2,1,0.7,0.79,2.145,40
3,1,1,0.8,0.634,0.207,41
3,1,1,0.8,0.542,0.184,42
3,1,1,0.9,0.527,0.191,43
3,2,2,0.9,0.664,0.179,44
3,2,2,0.9,0.502,0.177,45
3,1,1,0.9,0.613,0.221,46
3,1,2,0.9,0.581,0.153,47
3,2,1,0.9,0.548,0.223,48
3,1,1,0.9,0.543,0.178,49
3,2,2,0.9,0.616,0.177,50
3,1,1,0.9,0.506,0.164,51
3,1,1,0.8,0.487,0.527,52
3,2,1,0.8,0.544,0.227,53
3,2,1,0.8,0.492,0.244,54
3,2,2,0.9,0.56,0.221,55
3,1,1,0.9,0.545,0.211,56
3,1,1,0.9,0.495,0.191,57
3,1,2,1,0.637,0.275,58
3,2,2,0.7,0.761,0.231,59
3,2,1,0.8,0.73,0.234,60
3,1,1,0.9,0.56,0.27,61
3,1,1,0.9,0.548,0.15,62
3,2,2,0.9,0.925,0.15,63
3,2,2,0.8,0.601,0.15,64
3,2,2,0.9,0.505,0.14,65
3,1,2,0.8,0.73,0.171,66
3,1,1,0.8,0.766,0.15,67
3,1,1,0.8,0.724,0.21,68
3,1,1,0.8,0.672,0.165,69
3,2,2,0.8,0.774,0.43,70
3,1,1,0.9,0.687,0.495,71
3,2,1,0.8,0.643,0.424,72
3,2,2,0.7,0.622,0.649,73
3,2,2,0.7,1.058,0.853,74
3,1,1,0.9,0.929,6.489,75
3,2,1,0.8,0.679,0.308,76
3,1,1,0.7,0.662,0.4,77
3,2,1,0.8,0.575,0.135,78
3,1,1,0.7,0.863,0.21,79
3,1,1,0.7,0.534,0.158,80
3,1,2,0.7,0.692,0.477,81
3,2,1,0.7,0.72,0.11,82
3,2,2,0.6,0.625,0.94,83
3,1,1,0.7,0.72,0.165,84
3,1,1,0.8,0.584,0.147,85
3,2,2,0.8,0.689,0.242,86
3,2,2,0.9,0.677,0.563,87
3,2,1,0.8,0.585,0.588,88
3,2,1,0.8,0.879,0.389,89
3,1,1,0.8,0.63,0.377,90
3,1,2,0.8,0.575,0.183,91
3,1,1,0.8,0.509,0.128,92
3,2,1,0.8,0.47,0.129,93
3,1,1,0.8,0.549,0.127,94
3,1,1,0.8,0.544,0.146,95
3,2,1,0.8,0.688,0.185,96
3,2,1,0.8,0.446,0.127,97
3,1,1,0.8,0.391,0.139,98
3,2,1,0.9,0.467,0.094,99
3,2,1,0.9,0.425,0.132,100
3,1,2,0.5,0.404,1.298,101
3,2,1,1,0.683,0.552,1
3,2,1,1,0.46,0.175,2
3,1,1,1,0.504,0.282,3
3,1,1,1,0.811,0.259,4
3,1,1,1,0.674,0.223,5
3,2,1,1,0.656,0.136,6
3,2,1,0.8,0.574,2.366,7
3,2,1,0.8,0.782,0.12,8
3,2,2,1,0.72,0.164,9
3,1,1,1,0.58,0.079,10
3,1,1,1,0.53,0.115,11
3,1,1,1,0.617,0.105,12
3,1,1,1,0.471,0.077,13
3,2,1,1,0.616,0.12,14
3,2,2,1,0.72,0.156,15
3,2,2,1,0.546,0.133,16
3,1,1,1,0.688,0.129,17
3,2,2,1,0.609,0.082,18
3,2,1,1,0.594,0.104,19
3,1,1,1,0.72,0.118,20
3,1,1,1,0.527,0.127,21
3,1,2,1,1.048,0.176,22
3,2,1,1,0.569,0.185,23
3,1,1,1,0.572,0.117,24
3,1,2,1,0.571,0.171,25
3,2,2,0.9,0.756,0.177,26
3,1,1,1,0.671,0.17,27
3,1,2,1,0.582,0.208,28
3,2,1,0.9,0.865,0.236,29
3,2,2,1,0.69,0.138,30
3,2,1,0.8,0.63,0.601,31
3,2,2,0.8,0.786,0.668,32
3,2,2,0.6,1.4,0.766,33
3,1,1,1,0.973,0.477,34
3,2,1,1,0.878,0.163,35
3,1,1,1,0.983,0.49,36
3,1,1,1,0.614,0.15,37
3,1,1,1,0.588,0.142,38
3,2,1,1,0.807,0.152,39
3,1,1,1,0.582,0.137,40
3,2,1,0.9,0.538,0.346,41
3,1,1,1,0.603,0.095,42
3,1,1,1,0.923,0.785,43
3,2,1,1,0.829,0.583,44
3,1,1,1,0.579,0.11,45
3,2,1,0.6,0.628,1.119,46
3,2,2,0.6,0.906,0.998,47
3,1,2,0.5,0.788,0.847,48
3,2,2,0.6,0.634,0.512,49
3,1,1,1,0.641,0.558,50
3,1,1,1,0.637,0.186,51
3,2,2,1,0.684,0.2,52
3,2,2,1,0.533,0.196,53
3,1,1,0.9,1.099,0.829,54
3,2,2,0.9,0.612,0.508,55
3,1,2,0.7,0.583,0.898,56
3,2,1,0.9,0.67,0.441,57
3,1,2,0.8,0.615,0.679,58
3,2,1,0.8,0.627,0.43,59
3,1,2,0.7,0.647,1.055,60
3,2,1,0.9,0.696,0.856,61
3,1,1,1,0.871,0.49,62
3,1,1,0.9,0.546,0.237,63
3,2,1,0.9,0.612,0.356,64
3,2,2,1,0.82,0.423,65
3,1,1,0.9,0.693,0.19,66
3,1,1,0.9,0.679,0.332,67
3,2,1,0.8,0.864,0.242,68
3,2,1,0.8,0.668,0.238,69
3,1,1,0.7,0.823,0.377,70
3,2,1,0.7,0.754,0.424,71
3,1,1,0.8,0.643,0.689,72
3,1,1,0.9,0.642,0.519,73
3,1,1,0.9,0.589,0.136,74
3,1,1,0.9,0.548,0.103,75
3,2,2,0.9,0.658,0.314,76
3,2,1,0.9,0.643,0.248,77
3,2,1,0.9,0.818,0.162,78
3,2,1,0.9,0.616,0.112,79
3,1,1,0.9,0.503,0.121,80
3,2,1,0.9,0.589,0.167,81
3,1,1,0.9,0.581,0.208,82
3,1,1,0.8,0.591,0.201,83
3,1,1,0.9,0.57,0.114,84
3,2,1,0.9,0.72,0.189,85
3,2,1,0.9,0.675,0.201,86
3,2,1,0.6,0.932,1.06,87
3,1,1,0.7,0.573,0.622,88
3,1,1,0.7,0.751,0.13,89
3,1,1,0.7,0.634,0.128,90
3,2,1,0.9,4.702,2.52,91
3,1,1,0.7,0.838,0.412,92
3,2,1,0.9,0.659,0.205,93
3,2,1,0.9,0.692,0.132,94
3,2,1,0.9,1.021,0.175,95
3,1,1,0.9,0.637,0.107,96
3,1,1,0.9,0.601,0.119,97
3,2,1,1,1.282,2.943,98
3,1,1,1,0.694,0.279,99
3,2,1,1,0.65,0.258,100
3,1,1,1,0.656,0.209,101
3,2,1,0.5,0.858,0.981,1
3,1,1,0.5,0.574,0.135,2
3,1,1,0.5,0.501,0.311,3
3,1,1,0.5,0.539,0.134,4
3,2,1,0.5,0.411,0.156,5
3,2,1,0.5,0.468,0.136,6
3,1,1,0.5,0.438,0.123,7
3,2,1,1,1.241,0.407,8
3,2,1,1,0.555,0.128,9
3,1,1,1,0.606,0.102,10
3,1,1,1,0.501,0.072,11
3,1,1,1,5.595,0.736,12
3,1,1,0.9,0.905,0.243,13
3,2,1,1,0.521,0.255,14
3,2,1,0.9,0.546,0.166,15
3,2,1,0.9,0.454,0.167,16
3,2,1,0.9,0.508,0.159,17
3,2,1,0.9,0.506,0.893,18
3,1,1,0.9,0.649,0.513,19
3,2,1,0.7,0.751,1.138,20
3,1,1,0.9,0.606,0.606,21
3,1,1,1,0.602,0.159,22
3,2,2,0.8,0.797,1.083,23
3,2,1,1,0.617,0.226,24
3,1,1,0.9,0.816,2.312,25
3,1,1,1,0.72,0.479,26
3,1,1,1,0.552,0.126,27
3,2,2,0.8,0.681,0.87,28
3,2,1,1,0.732,0.941,29
3,2,1,0.9,0.668,0.678,30
3,1,1,1,0.511,0.266,31
3,2,1,0.9,1.069,0.344,32
3,1,1,0.9,0.532,0.276,33
3,1,1,0.8,0.797,0.586,34
3,1,1,1,0.561,0.262,35
3,1,1,0.9,0.885,0.322,36
3,1,1,0.9,0.569,0.2,37
3,2,1,0.9,0.606,0.175,38
3,2,1,0.8,1.589,0.512,39
3,2,2,1,0.924,0.505,40
3,2,2,0.9,0.738,0.46,41
3,1,2,0.8,0.72,0.315,42
3,1,1,1,0.583,0.658,43
3,2,1,0.8,1.6,1.462,44
3,2,1,0.8,0.653,0.117,45
3,1,1,0.7,0.683,0.408,46
3,1,1,1,0.684,0.193,47
3,2,2,1,0.864,0.219,48
3,2,2,1,0.532,0.148,49
3,2,1,1,0.677,0.522,50
3,2,2,1,0.601,0.174,51
3,2,2,1,0.625,0.164,52
3,1,1,1,0.65,0.123,53
3,2,2,1,0.526,0.126,54
3,1,1,1,0.524,0.146,55
3,1,1,1,0.666,0.085,56
3,1,2,0.9,0.731,0.219,57
3,2,2,1,0.58,0.095,58
3,1,2,1,0.535,0.136,59
3,2,1,0.9,0.589,0.2,60
3,2,2,1,0.72,0.162,61
3,1,1,1,0.567,0.208,62
3,1,2,0.7,0.55,1.232,63
3,2,2,1,0.591,0.194,64
3,1,1,0.9,0.637,0.291,65
3,1,1,0.9,0.59,0.113,66
3,1,1,1,0.871,0.418,67
3,2,1,1,0.635,0.08,68
3,2,1,0.7,0.806,0.902,69
3,1,1,1,0.688,0.168,70
3,2,2,1,0.647,0.151,71
3,2,2,1,0.658,0.074,72
3,1,1,1,0.774,0.278,73
3,1,1,1,0.59,0.169,74
3,1,1,1,0.535,0.2,75
3,2,2,1,0.632,0.197,76
3,2,1,1,0.727,0.151,77
3,2,2,0.7,0.565,0.797,78
3,1,1,1,0.72,0.123,79
3,1,1,1,0.884,0.157,80
3,2,1,1,0.52,0.173,81
3,2,2,1,0.539,0.134,82
3,2,1,0.9,0.609,0.226,83
3,1,1,1,0.568,0.272,84
3,1,2,0.8,0.55,0.985,85
3,1,1,1,0.529,0.146,86
3,2,2,1,0.544,0.171,87
3,2,2,1,0.633,0.222,88
3,1,1,1,0.626,0.381,89
3,2,2,1,0.6,0.23,90
3,1,2,1,0.788,0.214,91
3,1,1,1,0.991,0.197,92
3,2,2,1,0.52,0.158,93
3,2,2,1,0.821,0.191,94
3,1,2,1,0.622,0.152,95
3,2,2,1,1.523,0.281,96
3,1,1,0.8,0.666,0.253,97
3,1,1,0.8,0.558,0.123,98
3,1,1,0.8,0.583,0.114,99
3,2,1,0.8,0.68,0.189,100
3,1,1,1,1.062,1.833,1
3,2,2,1,0.501,0.184,2
3,2,1,1,0.654,0.118,3
3,2,1,0.9,0.527,0.119,4
3,1,1,0.9,0.448,0.136,5
3,1,1,0.9,0.507,0.118,6
3,2,1,0.9,0.567,0.151,7
3,2,2,1,1.016,0.304,8
3,1,2,1,0.516,0.185,9
3,2,2,1,0.527,0.135,10
3,2,2,1,0.498,0.205,11
3,1,1,1,0.889,0.146,12
3,1,1,1,0.565,0.181,13
3,2,1,1,0.507,0.094,14
3,1,1,1,0.47,0.097,15
3,2,1,1,0.426,0.132,16
3,1,1,1,0.453,0.134,17
3,2,1,1,0.583,0.217,18
3,1,1,1,0.487,0.143,19
3,2,2,1,0.51,0.136,20
3,1,1,1,0.558,0.131,21
3,2,2,1,0.692,0.14,22
3,2,2,1,0.445,0.15,23
3,1,1,1,0.72,0.158,24
3,2,2,1,0.458,0.147,25
3,1,1,0.9,0.539,0.173,26
3,1,2,1,0.526,0.23,27
3,2,1,0.7,0.674,0.431,28
3,1,1,1,0.923,0.184,29
3,1,1,1,0.478,0.124,30
3,2,2,1,0.674,0.159,31
3,1,1,1,0.592,0.134,32
3,1,1,0.9,0.72,0.145,33
3,2,2,1,0.624,0.146,34
3,1,2,0.7,0.66,1.062,35
3,2,1,1,0.788,0.239,36
3,2,2,0.6,0.758,1.027,37
3,2,2,1,0.601,0.135,38
3,1,2,0.7,2.543,1.713,39
3,2,2,1,0.573,3.357,40
3,2,2,1,1.239,0.556,41
3,1,1,1,0.723,0.273,42
3,1,2,1,0.484,0.121,43
3,2,2,1,0.589,0.12,44
3,1,1,1,0.619,0.126,45
3,1,1,1,0.628,0.151,46
3,1,1,0.9,0.984,1.634,47
3,2,1,0.9,0.99,0.609,48
3,2,1,0.9,0.928,0.248,49
3,1,1,0.9,0.648,0.145,50
3,2,2,1,0.671,0.218,51
3,2,1,0.9,1.246,0.334,52
3,1,1,0.9,0.72,0.865,53
3,2,1,0.9,0.661,0.184,54
3,1,1,0.9,0.537,0.137,55
3,1,1,0.9,0.49,0.138,56
3,2,2,1,0.613,0.277,57
3,1,1,0.9,0.462,0.144,58
3,2,1,0.9,0.72,0.189,59
3,2,1,0.9,0.395,0.368,60
3,1,1,0.9,0.523,0.114,61
3,2,2,1,0.775,0.223,62
3,1,2,1,0.723,0.224,63
3,1,2,0.9,0.62,0.103,64
3,2,1,0.8,0.72,0.144,65
3,1,1,0.8,0.496,0.136,66
3,2,2,0.7,0.673,0.159,67
3,1,2,0.7,0.559,0.125,68
3,2,2,0.6,0.774,0.07,69
3,2,2,0.6,0.58,0.135,70
3,1,2,0.6,0.576,0.136,71
3,2,2,0.6,1.264,4.043,72
3,2,2,0.6,0.597,0.187,73
3,1,2,0.7,0.698,0.593,74
3,1,2,0.7,0.509,0.192,75
3,1,1,1,0.796,0.953,76
3,2,2,1,0.674,0.16,77
3,2,1,1,0.547,0.286,78
3,1,1,1,0.508,0.111,79
3,1,1,1,0.496,0.128,80
3,2,2,1,0.659,0.174,81
3,2,1,1,0.535,0.175,82
3,1,1,1,0.554,0.144,83
3,1,1,1,1.176,3.665,84
3,2,1,1,0.752,0.15,85
3,1,1,0.9,0.546,0.1,86
3,2,2,0.7,0.72,0.935,87
3,1,1,0.9,0.547,0.254,88
3,2,1,1,0.761,0.063,89
3,2,1,0.9,1.599,1.909,90
3,2,1,0.9,0.604,0.113,91
3,1,1,0.9,0.525,0.133,92
3,1,1,0.9,0.571,0.107,93
3,2,1,0.9,0.562,0.119,94
3,2,1,0.9,0.664,0.058,95
3,2,1,0.9,0.334,0.174,96
3,1,1,0.9,0.604,0.114,97
3,1,1,0.9,0.647,0.207,98
3,2,2,0.9,0.653,0.246,99
3,1,1,0.9,0.698,0.145,100
3,1,1,0.9,0.474,0.072,101
3,2,1,0.9,0.566,0.158,102
3,1,1,0.9,0.575,0.175,103
3,1,1,0.9,0.522,0.152,104
3,1,1,0.9,0.481,0.286,105
3,2,1,0.6,0.361,1.199,106
3,2,1,0.9,0.531,0.155,107
3,1,1,0.9,0.804,0.121,108
3,2,1,0.9,0.621,0.247,109
4,1,1,0.6,1.475,0.433,1
4,1,1,0.9,1.458,0.341,2
4,1,1,0.9,1.963,1.601,3
4,2,1,0.6,1.472,0.461,4
4,2,1,0.6,1.305,0.315,5
4,2,2,0.7,1.124,0.474,6
4,1,1,0.8,0.936,0.544,7
4,2,1,0.6,1.385,0.42,8
4,1,1,0.8,1.282,0.64,9
4,2,2,0.7,0.857,0.393,10
4,2,1,0.6,1.149,0.312,11
4,2,1,0.6,1.369,0.457,12
4,1,1,0.6,1.042,0.423,13
4,1,1,0.8,1.36,0.766,14
4,1,1,0.7,1.108,0.399,15
4,2,2,0.8,0.776,0.632,16
4,2,1,0.8,1.275,0.641,17
4,1,1,0.8,0.925,0.789,18
4,1,1,0.9,1.806,0.31,19
4,2,1,0.7,1.632,0.429,20
4,2,2,0.6,1.31,1.241,21
4,2,2,0.8,1.344,0.626,22
4,1,1,0.6,0.835,0.561,23
4,1,2,0.7,1.474,0.927,24
4,1,1,0.8,0.878,0.916,25
4,1,1,0.6,1.002,0.383,26
4,2,2,0.7,0.883,0.72,27
4,2,2,0.6,1.238,0.332,28
4,2,2,0.6,0.851,0.37,29
4,2,2,0.6,1.121,0.326,30
4,1,2,0.7,1.285,0.773,31
4,1,1,0.7,0.916,0.409,32
4,2,2,0.6,1.415,0.247,33
4,2,1,0.6,1.112,0.261,34
4,1,1,0.6,1.281,0.311,35
4,1,1,0.7,1.346,0.381,36
4,2,2,0.8,1.198,0.532,37
4,2,1,0.6,0.741,0.279,38
4,1,2,0.6,3.289,0.996,39
4,1,1,0.7,1.282,0.496,40
4,1,1,0.6,1.267,0.286,41
4,2,1,0.7,1.221,0.711,42
4,1,1,0.6,0.977,0.561,43
4,2,2,0.7,0.773,0.436,44
4,2,1,0.6,1.211,0.267,45
4,2,1,0.6,0.358,0.251,46
4,1,2,0.6,0.2,0.861,47
4,1,1,0.6,1.049,0.865,48
4,1,1,0.6,0.848,0.439,49
4,1,1,0.7,1.278,0.484,50
4,1,1,0.8,1.09,0.362,51
4,1,2,0.6,1.411,0.259,52
4,2,2,0.6,1.068,0.335,53
4,2,2,0.6,1.08,0.253,54
4,2,2,0.6,1.001,0.334,55
4,2,2,0.8,0.956,0.386,56
4,2,1,0.6,0.818,0.653,57
4,1,2,0.6,1.116,0.425,58
4,2,2,0.6,1.087,0.487,59
4,1,2,0.8,1.278,0.483,60
4,2,2,0.6,1.351,0.604,61
4,1,1,0.6,1.256,0.544,62
4,2,2,0.6,1.402,0.399,63
4,1,2,0.7,1.09,0.515,64
4,1,2,0.7,0.72,0.574,65
4,2,2,0.7,1.16,0.421,66
4,1,1,0.7,1.542,0.369,67
4,2,1,0.8,1.3,0.615,68
4,1,2,0.9,1.555,0.376,69
4,2,1,0.7,1.263,0.394,70
4,1,1,0.6,1.408,0.392,71
4,2,2,0.7,1.983,2.17,72
4,2,2,0.6,1.371,0.396,73
4,1,1,0.6,1.431,0.269,74
4,2,2,0.7,0.819,0.262,75
4,1,1,0.6,0.737,0.361,76
4,2,2,0.6,1.496,0.304,77
4,1,1,0.6,1.179,0.238,78
4,1,1,0.8,1.015,0.728,79
4,2,1,0.6,1.225,1.092,80
4,2,2,0.7,1.672,0.773,81
4,2,2,0.6,1.359,0.22,82
4,2,1,0.6,1.114,0.584,83
4,2,2,0.8,0.836,0.825,84
4,1,1,0.7,0.93,0.322,85
4,1,2,0.7,0.72,0.48,86
4,1,1,0.9,0.868,0.727,87
4,1,1,0.7,1.645,0.373,88
4,2,1,0.7,1.091,0.396,89
4,1,2,0.6,0.722,0.479,90
4,1,1,0.8,0.723,0.616,91
4,1,1,0.8,0.834,0.671,92
4,2,1,0.8,1.224,0.355,93
4,2,1,0.7,1.198,0.468,94
4,1,1,0.7,0.741,0.44,95
4,2,2,0.8,0.625,0.372,96
4,2,2,0.8,1.207,0.799,97
4,2,1,0.6,0.814,0.646,98
4,2,2,0.7,0.591,0.428,99
4,1,1,0.6,0.654,0.317,100
4,1,2,0.7,0.764,0.409,101
4,1,1,0.9,2.729,0.207,1
4,2,2,0.8,2.253,0.528,2
4,1,1,1,1.332,0.38,3
4,1,1,0.6,1.714,0.264,4
4,1,1,0.6,1.192,0.302,5
4,2,2,0.7,1.596,0.218,6
4,1,1,0.6,1.243,0.384,7
4,2,2,0.8,1.311,0.346,8
4,2,1,0.7,1.176,0.512,9
4,2,1,0.7,1.156,0.377,10
4,1,1,0.7,0.728,0.576,11
4,1,1,0.8,1.721,0.239,12
4,1,1,0.8,1.368,0.448,13
4,2,2,0.7,1.23,0.385,14
4,2,1,0.6,1.229,0.559,15
4,2,2,0.7,0.901,0.6,16
4,1,1,0.6,1.177,0.537,17
4,1,1,0.7,1.019,0.741,18
4,2,2,0.7,0.722,0.463,19
4,2,2,0.6,1.195,0.536,20
4,1,2,0.8,1.774,1.102,21
4,2,2,0.8,1.395,0.568,22
4,1,1,0.6,1.462,0.393,23
4,2,1,0.6,1.312,0.277,24
4,1,2,0.6,1.305,0.268,25
4,1,1,0.8,1.167,0.52,26
4,2,2,0.8,1.224,0.563,27
4,2,1,0.6,0.892,0.58,28
4,1,1,0.7,1.278,0.955,29
4,2,2,0.8,1.333,0.732,30
4,1,1,0.8,1.149,0.472,31
4,2,2,0.6,1.463,0.433,32
4,2,1,0.8,1.362,0.808,33
4,1,1,0.7,1.271,0.369,34
4,1,2,0.6,0.93,0.458,35
4,1,1,0.9,1.532,0.508,36
4,2,2,0.9,1.685,0.741,37
4,1,2,0.7,1.27,0.633,38
4,2,2,0.6,1.194,0.312,39
4,1,1,0.6,1.166,0.31,40
4,1,1,0.6,1.188,0.343,41
4,2,2,0.7,1.241,0.518,42
4,2,2,0.8,1.21,0.65,43
4,1,1,0.8,1.109,0.688,44
4,2,2,0.7,1.918,0.636,45
4,1,2,0.7,1.141,0.472,46
4,1,1,0.7,1.11,0.361,47
4,2,2,0.6,0.695,0.695,48
4,1,2,0.7,0.814,1.79,49
4,2,2,0.6,1.101,0.383,50
4,2,2,0.6,1.638,0.46,51
4,1,2,0.6,1.441,0.311,52
4,1,1,0.8,1.243,0.513,53
4,2,2,0.6,1.02,0.335,54
4,1,1,0.6,1.339,0.285,55
4,2,2,0.6,0.689,0.353,56
4,2,1,0.6,0.668,0.471,57
4,1,2,0.6,0.352,0.422,58
4,2,2,0.6,0.7,0.478,59
4,2,1,0.6,0.858,0.373,60
4,2,2,0.6,0.897,0.305,61
4,1,1,0.9,1.105,0.972,62
4,1,1,0.6,1.237,0.355,63
4,2,2,0.7,1.153,0.814,64
4,1,1,0.7,0.915,0.463,65
4,2,1,0.7,1.638,0.86,66
4,1,1,0.7,1.827,0.694,67
4,1,1,0.8,1.185,0.636,68
4,2,2,0.7,1.341,0.599,69
4,1,2,0.6,1.339,0.31,70
4,2,2,0.6,1.186,0.293,71
4,1,1,0.8,1.075,0.505,72
4,1,1,0.7,1.297,0.754,73
4,2,2,0.8,0.966,0.47,74
4,2,2,0.9,1.644,0.41,75
4,1,2,0.6,1.323,0.289,76
4,1,1,0.6,1.3,0.335,77
4,2,2,0.6,1.168,0.224,78
4,1,1,0.6,1.244,0.281,79
4,2,2,0.8,1.196,0.546,80
4,1,1,0.7,0.867,0.494,81
4,2,2,0.9,1.337,0.753,82
4,2,2,0.6,1.349,0.32,83
4,2,2,0.7,0.815,0.591,84
4,2,2,0.7,1.274,0.512,85
4,2,2,0.6,1.225,0.252,86
4,1,1,0.6,1.319,0.469,87
4,2,1,0.8,1.43,0.577,88
4,1,1,0.7,1.119,0.884,89
4,1,2,0.6,1.515,0.336,90
4,1,2,0.6,0.863,0.409,91
4,2,1,0.6,0.656,0.352,92
4,2,2,0.7,1.193,0.798,93
4,1,1,0.8,1.199,0.413,94
4,2,1,0.8,1.526,0.838,95
4,1,1,0.7,1.722,0.568,96
4,2,2,0.6,1.054,0.318,97
4,1,1,0.6,0.761,0.535,98
4,1,1,0.8,1.258,0.477,99
4,1,2,0.6,0.86,0.462,100
4,1,1,0.8,0.72,0.522,101
4,2,1,0.6,1.409,0.305,1
4,2,2,0.8,1.458,0.597,2
4,1,1,0.7,1.212,0.34,3
4,2,2,0.8,1.416,0.504,4
4,1,2,0.6,1.345,0.356,5
4,2,1,0.8,1.301,0.823,6
4,2,2,0.6,1.451,0.636,7
4,1,1,0.7,1.229,0.616,8
4,1,1,0.7,1.416,0.473,9
4,2,2,0.8,0.861,0.911,10
4,2,2,0.7,1.256,0.433,11
4,2,1,0.7,1.625,0.357,12
4,1,1,0.7,1.168,0.561,13
4,1,1,0.6,1.223,0.298,14
4,1,1,0.6,0.662,0.336,15
4,1,1,0.6,1.073,0.407,16
4,2,2,0.6,0.858,0.581,17
4,2,1,0.6,0.806,0.23,18
4,1,1,0.7,1.226,0.308,19
4,2,1,0.7,0.829,0.28,20
4,1,2,0.6,0.289,0.24,21
4,2,1,0.7,0.924,0.266,22
4,1,2,0.6,0.2,0.382,23
4,2,2,0.6,1.159,0.268,24
4,2,2,0.8,1.112,0.942,25
4,1,1,0.7,1.145,0.516,26
4,2,1,0.7,1.338,0.485,27
4,1,1,0.7,0.761,1.206,28
4,2,2,0.8,0.848,0.52,29
4,1,1,0.7,1.321,0.326,30
4,2,2,0.7,0.68,0.477,31
4,1,1,0.6,0.667,0.366,32
4,1,1,0.6,0.665,0.652,33
4,2,2,0.6,0.616,0.528,34
4,1,1,0.6,4.062,1.022,35
4,1,1,0.6,0.739,0.286,36
4,2,2,0.6,0.639,0.461,37
4,2,1,0.6,0.691,0.243,38
4,2,1,0.6,1.465,0.308,39
4,1,1,0.8,1.205,0.413,40
4,2,2,0.6,0.822,0.337,41
4,1,1,0.7,0.869,0.839,42
4,1,2,0.6,0.992,0.694,43
4,2,2,0.7,1.436,0.482,44
4,1,1,0.8,1.16,0.486,45
4,2,2,0.6,0.729,0.433,46
4,1,1,0.7,1.234,0.576,47
4,1,1,0.9,1.398,0.444,48
4,1,1,0.8,1.306,1.277,49
4,2,1,0.8,0.899,0.582,50
4,1,1,0.8,0.826,0.573,51
4,2,2,0.6,1.105,0.323,52
4,2,1,0.6,1.3,0.359,53
4,2,1,0.7,1.179,0.438,54
4,2,2,0.6,0.825,0.484,55
4,2,1,0.6,0.975,0.304,56
4,1,2,0.6,1.401,0.374,57
4,1,1,0.6,0.2,0.24,58
4,1,2,0.6,0.736,0.409,59
4,2,1,0.6,0.593,0.231,60
4,2,2,0.6,0.654,0.357,61
4,1,1,0.6,1.262,0.265,62
4,2,1,0.7,0.803,0.304,63
4,2,1,0.6,1.038,0.315,64
4,1,1,0.7,0.72,0.298,65
4,2,2,0.6,1.357,0.259,66
4,1,1,0.6,0.934,0.279,67
4,2,2,0.6,0.466,0.325,68
4,1,1,0.6,0.72,0.296,69
4,1,1,0.9,1.465,0.268,70
4,1,1,0.8,1.151,0.533,71
4,1,1,0.8,1.294,0.638,72
4,2,1,0.8,1.84,0.557,73
4,2,1,0.7,1.273,0.206,74
4,2,1,0.7,1.162,0.295,75
4,1,1,0.7,0.723,0.336,76
4,1,2,0.6,1.273,0.406,77
4,2,1,0.6,1.482,0.408,78
4,1,1,0.6,1.129,0.297,79
4,2,1,0.7,1.029,0.407,80
4,2,1,0.7,1.208,0.352,81
4,2,2,0.6,1.479,0.22,82
4,1,1,0.9,1.238,0.331,83
4,1,2,0.6,1.18,0.311,84
4,1,1,0.7,1.12,0.221,85
4,2,2,0.7,0.854,0.374,86
4,2,2,0.7,0.815,0.423,87
4,2,1,0.7,0.752,0.325,88
4,2,1,0.7,0.72,0.476,89
4,1,1,0.7,0.912,1.061,90
4,1,1,0.7,1.094,0.454,91
4,2,2,0.7,0.674,0.319,92
4,1,1,0.6,0.754,0.208,93
4,1,1,0.6,1.131,0.244,94
4,2,2,0.9,1.573,0.389,95
4,1,1,0.7,0.683,0.408,96
4,2,1,0.6,1.137,0.258,97
4,1,1,0.7,1.13,0.331,98
4,2,1,0.6,0.929,0.353,99
4,1,1,0.7,1.055,0.343,100
4,1,1,0.6,0.672,0.342,101
4,2,1,0.8,2.343,0.208,1
4,2,1,0.6,1.492,0.18,2
4,1,1,0.6,1.048,0.216,3
4,1,1,0.7,1.643,0.625,4
4,2,2,0.7,1.208,0.88,5
4,2,1,0.7,1.273,0.334,6
4,1,2,0.6,0.759,0.373,7
4,2,1,0.6,1.141,0.264,8
4,1,1,0.7,1.225,0.292,9
4,2,1,0.7,0.853,0.405,10
4,1,1,0.6,0.936,0.441,11
4,1,2,0.8,0.786,0.932,12
4,2,1,0.6,1.022,0.28,13
4,2,1,0.6,0.564,0.217,14
4,2,1,0.6,0.901,0.199,15
4,1,1,0.6,0.902,0.472,16
4,1,2,0.6,0.674,0.271,17
4,2,2,0.7,1.344,0.403,18
4,2,1,0.6,0.72,0.284,19
4,2,1,0.6,1.135,0.328,20
4,2,1,0.7,1.24,0.318,21
4,1,2,0.7,0.916,0.298,22
4,1,1,0.6,0.696,0.28,23
4,1,2,0.7,0.777,0.449,24
4,1,1,0.6,12.193,0.369,25
4,1,1,0.7,1.261,0.519,26
4,2,1,0.6,1.398,0.347,27
4,2,2,0.6,0.876,0.338,28
4,1,1,0.7,0.693,0.229,29
4,2,2,0.6,0.756,0.305,30
4,1,1,0.6,0.85,0.298,31
4,2,2,0.6,0.72,0.63,32
4,1,1,0.8,1.326,0.319,33
4,2,1,0.6,1.307,0.397,34
4,1,2,0.6,0.761,0.342,35
4,1,1,0.6,0.725,0.309,36
4,1,2,0.7,0.742,0.521,37
4,2,1,0.7,1.212,0.452,38
4,1,1,0.6,0.656,0.336,39
4,2,1,0.8,0.865,0.46,40
4,2,2,0.6,0.653,0.413,41
4,2,1,0.6,1.035,0.313,42
4,1,1,0.9,1.447,0.295,43
4,2,2,0.7,1.157,0.291,44
4,2,1,0.6,1.025,0.275,45
4,1,2,0.7,1.189,0.536,46
4,2,2,0.8,1.899,0.486,47
4,1,1,0.7,0.658,0.274,48
4,1,1,0.6,0.899,0.23,49
4,2,2,0.6,0.606,0.255,50
4,2,1,0.6,1.234,0.192,51
4,1,1,0.7,1.51,0.241,52
4,2,1,0.6,0.442,0.263,53
4,2,2,0.6,0.664,0.363,54
4,1,1,0.8,0.777,0.497,55
4,1,1,0.9,1.002,0.511,56
4,1,1,0.7,0.939,0.326,57
4,2,2,0.6,0.758,0.38,58
4,2,1,0.6,0.885,0.309,59
4,1,1,0.8,0.931,0.603,60
4,1,1,0.8,0.823,0.378,61
4,1,1,0.7,0.661,0.448,62
4,2,2,0.7,0.692,0.387,63
4,2,1,0.6,0.618,0.341,64
4,1,1,0.8,0.819,0.645,65
4,2,1,0.7,0.615,0.351,66
4,1,1,0.7,0.559,0.429,67
4,2,1,0.7,0.582,0.472,68
4,1,1,0.6,0.738,0.402,69
4,1,1,0.6,0.869,0.448,70
4,2,2,0.7,0.729,0.273,71
4,2,2,0.6,0.978,0.404,72
4,1,1,0.7,0.608,0.264,73
4,2,2,0.8,1.719,0.548,74
4,2,1,0.6,0.696,0.256,75
4,1,1,0.6,0.844,0.248,76
4,1,1,0.6,0.777,0.266,77
4,1,2,0.6,0.827,0.301,78
4,1,1,0.6,0.582,0.289,79
4,2,1,0.8,1.357,0.97,80
4,2,1,0.7,0.99,0.465,81
4,1,1,0.7,0.647,0.311,82
4,1,1,0.7,0.68,0.35,83
4,2,2,0.7,0.761,0.414,84
4,1,1,0.8,0.792,0.893,85
4,1,1,0.8,0.67,0.585,86
4,2,1,0.6,1.257,0.228,87
4,2,1,0.6,1.046,0.261,88
4,2,1,0.6,1.177,0.252,89
4,1,1,0.6,0.626,0.389,90
4,2,1,0.8,1.411,0.315,91
4,1,1,0.6,0.72,1.874,92
4,2,1,0.6,1.16,0.35,93
4,1,1,0.6,1.076,0.426,94
4,1,1,0.6,1.091,0.291,95
4,2,1,0.6,1.518,0.212,96
4,2,2,0.6,0.736,0.272,97
4,2,1,0.8,1.174,0.774,98
4,2,1,0.9,1.421,0.304,99
4,1,1,0.7,1.124,0.321,100
4,2,1,0.6,3.302,0.474,1
4,1,1,0.7,1.517,0.179,2
4,1,1,0.7,1.444,0.473,3
4,2,1,0.6,1.058,0.197,4
4,1,1,0.6,1.188,0.182,5
4,2,1,0.7,1.172,0.205,6
4,1,1,0.6,1.147,0.238,7
4,2,2,0.7,0.74,0.575,8
4,1,1,0.8,1.042,0.456,9
4,2,1,0.7,1.251,0.372,10
4,1,1,0.6,1.034,0.248,11
4,1,1,0.6,0.806,0.205,12
4,2,2,0.7,0.817,0.561,13
4,2,2,0.7,0.698,0.509,14
4,1,1,0.6,0.659,0.278,15
4,1,2,0.7,0.647,0.375,16
4,2,1,0.6,1.075,2.464,17
4,1,1,0.8,1.281,0.215,18
4,1,2,0.7,0.856,0.504,19
4,2,2,0.6,1.316,0.385,20
4,2,1,0.6,1.375,0.184,21
4,2,2,0.7,1.158,0.252,22
4,1,1,0.7,0.759,0.565,23
4,1,1,0.6,0.771,0.347,24
4,2,1,0.6,1.311,0.418,25
4,2,1,0.7,0.947,0.461,26
4,1,1,0.6,1.435,0.281,27
4,1,1,0.7,0.746,1.396,28
4,2,1,0.8,1.604,0.337,29
4,1,1,0.6,0.663,0.242,30
4,2,1,0.7,1.144,0.251,31
4,2,2,0.7,0.799,0.836,32
4,1,1,0.7,0.627,0.533,33
4,1,1,0.7,0.785,0.46,34
4,1,1,0.8,0.682,0.527,35
4,2,2,0.7,0.897,0.537,36
4,2,1,0.7,0.634,0.343,37
4,2,1,0.6,0.931,0.403,38
4,1,2,0.7,0.612,0.316,39
4,1,1,0.7,0.562,0.311,40
4,1,1,0.7,0.581,0.36,41
4,1,2,0.6,0.321,0.382,42
4,2,2,0.6,1.106,0.261,43
4,2,1,0.6,0.2,0.289,44
4,2,2,0.7,0.652,0.628,45
4,1,1,0.8,1.206,0.422,46
4,1,1,0.7,1.02,0.551,47
4,2,1,0.6,0.731,0.482,48
4,2,2,0.6,0.59,0.273,49
4,2,1,0.6,0.447,0.311,50
4,1,1,0.8,0.943,0.962,51
4,2,2,0.6,0.769,0.297,52
4,1,1,0.7,0.639,0.293,53
4,2,2,0.6,0.504,0.395,54
4,1,1,0.6,0.43,0.265,55
4,2,2,0.6,0.471,0.29,56
4,1,1,0.7,1.363,0.232,57
4,1,1,0.8,0.66,0.431,58
4,2,2,0.7,0.565,0.285,59
4,2,1,0.7,0.556,0.256,60
4,1,2,0.7,0.5,0.239,61
4,2,2,0.7,0.757,0.379,62
4,1,1,0.7,0.667,0.214,63
4,2,2,0.7,0.554,0.263,64
4,1,1,0.8,1.248,0.504,65
4,2,1,0.6,1.1,0.335,66
4,1,1,0.9,1.493,0.181,67
4,2,2,0.7,1.228,0.334,68
4,1,1,0.8,1.204,0.274,69
4,2,2,0.7,1.357,0.451,70
4,1,1,0.8,0.902,0.481,71
4,1,2,0.7,1.303,0.258,72
4,2,1,0.7,1.273,0.23,73
4,2,1,0.8,1.173,0.477,74
4,2,2,0.6,0.811,0.395,75
4,1,1,0.8,1.158,0.348,76
4,1,1,0.7,0.72,0.33,77
4,2,1,0.6,0.894,0.206,78
4,1,2,0.6,0.676,0.322,79
4,2,1,0.7,0.731,0.635,80
4,2,2,0.8,1.204,0.665,81
4,1,1,0.8,1.176,0.448,82
4,1,1,0.6,1.43,0.305,83
4,2,2,0.7,0.591,0.301,84
4,1,1,0.9,0.6,0.814,85
4,1,1,0.9,1.191,0.37,86
4,1,1,0.7,1.434,0.256,87
4,1,1,0.6,1.116,0.185,88
4,2,1,0.6,1.613,0.165,89
4,2,2,0.6,0.833,0.494,90
4,2,2,0.6,1.188,0.359,91
4,1,1,0.6,0.616,0.2,92
4,2,2,0.6,0.844,0.305,93
4,2,1,0.7,0.787,0.469,94
4,1,1,0.7,1.331,0.427,95
4,2,2,0.7,0.871,0.476,96
4,1,2,0.7,1.163,0.512,97
4,1,1,0.7,1.348,0.607,98
4,2,2,0.7,1.478,0.875,99
4,1,1,0.7,1.362,0.479,100
4,2,1,0.6,1.437,0.371,101
4,2,2,0.6,0.72,0.244,102
4,1,1,0.7,1.295,0.16,103
4,2,1,0.6,1.329,0.609,104
4,1,1,0.6,0.844,0.53,105
4,2,2,0.7,0.565,0.549,106
4,2,1,0.6,1.263,1.321,107
4,1,1,0.7,1.782,0.416,108
4,1,1,0.8,1.773,0.557,109
5,2,1,0.9,1.002,1.498,1
5,2,2,0.9,0.625,1.228,2
5,1,2,0.8,0.989,1.272,3
5,1,1,0.8,1.684,1.265,4
5,2,2,0.9,0.982,1.176,5
5,2,1,0.8,1.903,1.218,6
5,1,1,0.8,1.48,1.454,7
5,1,2,0.7,0.789,1.671,8
5,2,2,0.8,0.732,1.268,9
5,1,1,0.7,1.042,2.848,10
5,2,2,0.8,0.591,1.466,11
5,2,2,0.9,0.638,1.339,12
5,1,2,0.8,0.796,1.362,13
5,1,1,0.9,0.661,5.289,14
5,1,1,0.9,0.925,2.773,15
5,2,2,0.8,0.746,3.029,16
5,2,2,0.9,0.81,1.137,17
5,2,2,0.9,0.92,1.237,18
5,1,2,0.9,0.633,1.527,19
5,1,1,0.8,0.899,0.941,20
5,1,2,0.8,0.652,1.14,21
5,1,1,0.8,1.032,1.357,22
5,2,2,0.7,0.689,4.793,23
5,2,2,0.8,1.711,1.94,24
5,1,1,0.7,1.656,1.393,25
5,2,2,0.8,1.067,0.909,26
5,2,1,0.8,2.188,1.439,27
5,2,1,0.8,1.512,1.214,28
5,1,2,0.8,0.767,1.943,29
5,1,1,0.8,1.059,1.806,30
5,2,2,0.8,1.314,2.568,31
5,1,1,0.8,1.183,1.346,32
5,2,2,0.9,0.686,0.798,33
5,1,2,0.9,0.72,0.938,34
5,1,1,0.8,1.129,2.128,35
5,1,2,0.7,0.738,1.826,36
5,2,1,0.8,1.318,1.195,37
5,1,1,0.7,0.768,1.511,38
5,2,2,0.9,0.654,1.638,39
5,2,1,0.7,2.556,1.379,40
5,1,2,0.8,0.972,1.188,41
5,1,2,0.7,0.885,1.853,42
5,2,2,0.7,0.93,1.338,43
5,1,2,0.7,1.448,1.208,44
5,1,1,0.8,1.028,0.935,45
5,2,2,0.8,1.145,0.739,46
5,2,2,0.8,1.079,0.796,47
5,2,1,0.7,1.763,0.985,48
5,1,1,0.8,1.65,0.914,49
5,1,1,0.8,1.926,1.534,50
5,2,1,0.8,1.925,1.366,51
5,2,2,0.8,1.986,1.197,52
5,2,2,0.8,1.284,1.305,53
5,1,1,0.8,1.346,1.509,54
5,2,2,0.8,1.977,0.905,55
5,1,1,0.9,1.224,0.923,56
5,1,1,0.9,1.332,0.996,57
5,1,1,0.8,1.064,1.642,58
5,2,2,0.9,1.004,1.177,59
5,1,1,0.9,1.093,0.933,60
5,2,2,0.7,1.089,5.418,61
5,1,1,0.8,0.892,4.556,62
5,2,2,0.9,0.72,1.396,63
5,2,2,0.8,1.571,1.315,64
5,2,2,0.9,0.98,1.319,65
5,1,1,0.8,1.126,1.006,66
5,1,1,0.9,1.164,1.25,67
5,2,2,0.7,2.343,1.337,68
5,2,2,0.8,1.384,1.69,69
5,1,1,0.9,1.156,1.209,70
5,2,1,0.8,1.419,1.734,71
5,1,1,0.8,2.463,1.781,72
5,1,1,0.8,0.996,0.897,73
5,2,2,0.9,0.696,0.744,74
5,2,2,0.8,2.182,0.69,75
5,2,2,0.9,1.037,0.795,76
5,1,1,0.8,3.236,0.85,77
5,1,2,0.9,0.728,0.768,78
5,1,2,0.8,1.479,1.269,79
5,2,2,0.8,1.662,1.233,80
5,1,1,0.8,0.794,5.831,81
5,2,2,0.7,3.436,1.761,82
5,1,2,0.7,0.946,1.365,83
5,2,1,0.8,1.321,1.046,84
5,1,2,0.8,1.027,2.949,85
5,1,2,0.7,0.898,1.34,86
5,2,1,0.7,0.886,7.838,87
5,2,2,0.8,0.996,1.729,88
5,2,2,0.8,1.037,1.195,89
5,2,2,0.9,0.847,1.031,90
5,1,1,0.9,0.928,1.024,91
5,2,1,0.8,2.463,1.205,92
5,1,1,0.9,0.825,0.867,93
5,2,1,0.8,1.133,0.941,94
5,1,1,0.7,2.929,1.591,95
5,1,1,0.8,1.027,0.862,96
5,1,1,0.9,0.724,0.826,97
5,1,1,0.8,3.196,0.817,98
5,2,1,0.9,0.767,0.719,99
5,2,2,0.9,1.352,0.814,100
5,2,2,0.8,1.324,0.682,101
5,1,1,0.9,0.72,1.105,1
5,2,2,0.9,0.613,0.773,2
5,1,1,0.8,1.175,1.142,3
5,1,1,0.8,1.979,1.677,4
5,1,2,0.8,0.962,1.287,5
5,2,2,0.8,1.67,1.265,6
5,1,1,0.9,0.781,0.831,7
5,2,2,0.8,0.636,2.337,8
5,1,1,0.9,0.949,1.056,9
5,2,2,0.9,1.052,1.107,10
5,2,2,0.8,1.464,3.979,11
5,2,2,0.9,1.042,0.783,12
5,1,1,0.9,0.918,1.347,13
5,1,1,0.9,0.949,1.087,14
5,2,2,0.8,0.833,0.982,15
5,1,1,0.7,1.205,1.157,16
5,2,2,0.8,1.734,1.478,17
5,2,1,0.8,1.144,2.571,18
5,1,2,0.8,3.236,1.216,19
5,1,1,0.7,0.929,2.593,20
5,1,1,0.7,2.059,1.182,21
5,2,1,0.7,0.808,1.479,22
5,2,1,0.8,0.899,0.662,23
5,2,1,0.7,0.999,1.629,24
5,2,2,0.8,1.505,1.067,25
5,1,1,0.8,0.964,1.637,26
5,1,1,0.8,0.633,10.718,27
5,2,1,0.7,0.851,6.579,28
5,2,2,0.7,0.945,1.363,29
5,1,1,0.8,0.728,1.423,30
5,2,1,0.8,0.969,1.081,31
5,1,1,0.9,0.736,0.791,32
5,1,1,0.9,0.726,0.926,33
5,1,1,0.9,1.044,1.226,34
5,2,1,0.8,1.715,1.001,35
5,2,2,0.7,1.754,1.255,36
5,2,1,0.8,1.185,1.131,37
5,2,2,0.8,1.261,1.959,38
5,1,1,0.8,1.113,1.503,39
5,2,2,0.8,1.843,3.672,40
5,1,2,0.8,1.197,4.227,41
5,1,1,0.8,0.906,4.685,42
5,1,1,0.9,0.66,0.927,43
5,1,1,0.9,0.6,0.726,44
5,2,2,0.7,1.343,0.802,45
5,2,2,0.7,3.289,1.727,46
5,2,1,0.8,1.312,14.685,47
5,1,1,0.8,0.865,0.996,48
5,2,2,0.9,0.805,1.413,49
5,1,1,0.9,0.663,1.097,50
5,1,1,0.8,1.045,0.717,51
5,1,2,0.8,1.254,0.743,52
5,2,2,0.9,1.167,0.976,53
5,2,1,0.8,2.343,1.428,54
5,1,1,0.8,0.859,1.189,55
5,2,1,0.7,1.065,1.316,56
5,2,2,0.7,1.243,1.368,57
5,1,2,0.8,0.737,0.809,58
5,1,1,0.8,0.829,1.032,59
5,2,1,0.8,1.001,0.758,60
5,1,1,0.9,1.525,0.829,61
5,2,2,0.7,4.222,0.674,62
5,2,2,0.7,1.136,3.361,63
5,1,1,0.8,0.963,0.744,64
5,2,2,0.8,1.102,1.169,65
5,1,2,0.7,0.864,1.258,66
5,1,1,0.8,0.982,1.057,67
5,1,2,0.8,1.472,1.037,68
5,1,2,0.8,0.825,4.46,69
5,2,1,0.8,0.958,0.772,70
5,2,2,0.8,0.744,0.898,71
5,1,1,0.8,1.246,1.15,72
5,2,2,0.8,0.648,0.975,73
5,1,1,0.8,0.539,1.054,74
5,2,1,0.8,0.554,0.719,75
5,1,1,0.8,0.459,0.709,76
5,1,2,0.8,0.516,0.681,77
5,1,2,0.8,0.581,0.631,78
5,2,1,0.8,0.627,0.55,79
5,2,2,0.8,0.509,0.687,80
5,2,1,0.8,0.64,0.629,81
5,2,2,0.8,0.855,0.687,82
5,1,1,0.9,0.594,0.704,83
5,2,1,0.8,0.873,1.638,84
5,1,2,0.9,0.349,0.76,85
5,2,2,0.9,0.486,0.574,86
5,2,1,0.9,0.639,0.612,87
5,1,1,0.9,0.653,0.645,88
5,1,1,0.8,0.575,1.054,89
5,2,2,0.8,0.826,1.261,90
5,1,1,0.8,1.241,1.079,91
5,2,2,0.9,0.602,2.184,92
5,2,1,0.8,0.761,0.759,93
5,1,1,0.8,0.627,0.645,94
5,1,1,0.8,0.675,0.649,95
5,2,1,0.9,0.671,0.642,96
5,1,1,0.9,0.72,0.678,97
5,1,1,0.9,0.583,0.633,98
5,2,2,0.8,1.336,1,99
5,2,2,0.8,0.72,0.796,100
5,1,1,1,0.6,0.772,101
5,1,1,0.8,0.644,1.705,1
5,1,1,0.8,0.776,0.496,2
5,2,1,0.9,0.673,0.518,3
5,2,2,0.8,1.181,0.871,4
5,1,1,0.8,1.771,1.004,5
5,2,2,0.9,0.951,0.701,6
5,2,2,0.8,0.766,1.414,7
5,2,2,0.9,0.917,0.57,8
5,1,2,0.9,0.977,0.408,9
5,1,2,0.9,0.613,0.364,10
5,1,2,0.8,0.904,0.819,11
5,2,2,0.8,0.601,0.63,12
5,1,2,0.8,0.695,0.616,13
5,2,1,0.9,0.825,1.987,14
5,2,1,0.8,0.768,0.784,15
5,1,1,0.8,0.656,0.713,16
5,2,2,0.8,0.586,0.94,17
5,1,1,0.8,0.677,0.979,18
5,1,1,0.9,0.609,0.697,19
5,2,2,0.8,0.983,1.33,20
5,2,2,0.9,0.841,0.918,21
5,1,1,0.9,0.674,1.016,22
5,1,1,0.8,0.664,0.931,23
5,1,1,0.9,0.655,0.831,24
5,1,1,0.9,0.797,0.659,25
5,2,2,0.8,0.866,1.468,26
5,2,2,0.9,0.886,1.702,27
5,2,1,0.8,0.789,1.679,28
5,2,2,0.7,0.664,0.971,29
5,1,1,0.9,0.749,1.047,30
5,1,1,0.9,1.083,0.809,31
5,2,2,0.9,1.365,0.677,32
5,2,2,0.9,0.96,1.494,33
5,1,1,0.9,1.05,0.698,34
5,1,1,0.8,0.681,0.91,35
5,2,1,0.9,0.999,0.74,36
5,2,2,0.9,0.872,1.197,37
5,1,1,0.8,3.502,1.886,38
5,2,2,0.8,1.121,1.007,39
5,2,2,0.8,0.752,0.934,40
5,2,1,0.8,1.255,0.703,41
5,1,1,0.8,0.76,0.437,42
5,1,1,0.9,1.204,0.649,43
5,1,1,0.8,1.856,1.376,44
5,1,1,0.9,0.689,0.681,45
5,2,2,0.9,0.845,0.605,46
5,2,2,0.9,1.236,0.441,47
5,1,1,0.9,0.815,0.623,48
5,2,2,0.9,1.206,0.39,49
5,2,1,0.9,1,0.389,50
5,1,1,0.8,0.6,1.47,51
5,2,2,0.9,0.764,1.089,52
5,1,1,0.9,1.048,0.368,53
5,1,1,0.9,1.086,0.646,54
5,1,1,0.9,0.8,0.557,55
5,1,1,0.8,1.393,0.463,56
5,2,2,0.8,0.695,0.472,57
5,2,1,0.8,0.59,0.361,58
5,2,2,0.8,1.242,0.519,59
5,1,1,0.8,0.92,0.406,60
5,1,2,0.8,0.833,0.743,61
5,2,2,0.9,1.328,1.152,62
5,2,2,0.9,1.193,0.351,63
5,2,2,0.8,0.634,1.008,64
5,1,1,0.8,1.31,1.009,65
5,2,2,0.8,1.17,0.658,66
5,2,1,0.8,0.804,0.611,67
5,1,1,0.9,0.72,0.818,68
5,1,1,0.9,0.641,1.133,69
5,1,1,0.9,0.988,0.655,70
5,2,1,0.9,0.698,0.469,71
5,2,1,0.9,0.921,0.406,72
5,1,1,0.8,0.634,1.048,73
5,2,2,0.9,1.118,0.707,74
5,1,1,0.8,0.783,0.874,75
5,1,1,0.9,0.678,0.475,76
5,1,1,0.9,0.553,0.431,77
5,2,1,0.9,1.187,0.557,78
5,1,1,0.8,0.614,1.414,79
5,2,1,0.8,0.763,0.816,80
5,1,1,0.7,0.78,0.558,81
5,2,2,0.8,1.818,1.325,82
5,1,1,0.8,1.004,0.577,83
5,2,2,0.9,0.976,0.656,84
5,1,1,0.9,0.926,0.702,85
5,2,1,0.8,0.572,1.164,86
5,2,1,0.9,0.72,1.067,87
5,2,2,0.9,1.093,0.597,88
5,1,2,0.9,1.23,1.672,89
5,2,2,0.9,0.618,0.458,90
5,1,2,0.9,0.664,0.459,91
5,1,1,0.9,1.62,2.927,92
5,1,2,0.7,1.942,1.145,93
5,2,2,0.7,0.936,1.136,94
5,2,1,0.8,1.081,0.51,95
5,1,1,0.8,0.65,0.53,96
5,1,1,0.9,0.985,0.547,97
5,2,1,0.8,1.234,0.568,98
5,2,2,0.8,0.654,0.606,99
5,1,2,0.8,0.575,0.519,100
5,1,1,0.9,0.81,0.827,101
5,2,2,0.8,1.204,1.037,1
5,1,1,0.9,0.575,0.958,2
5,2,2,0.8,1.199,0.685,3
5,2,1,0.8,0.641,0.478,4
5,2,1,0.8,0.676,0.722,5
5,1,1,0.7,1.312,0.71,6
5,2,2,0.9,0.735,0.847,7
5,1,1,0.9,0.85,0.466,8
5,1,1,0.9,0.628,0.374,9
5,1,1,0.9,0.842,0.743,10
5,1,1,0.9,0.899,0.406,11
5,2,1,0.9,0.644,0.297,12
5,1,1,0.9,0.693,0.373,13
5,1,1,0.9,0.806,0.366,14
5,2,1,0.9,0.503,0.345,15
5,2,2,0.9,0.688,0.44,16
5,2,2,0.8,1.201,0.382,17
5,1,1,0.8,0.653,0.732,18
5,1,1,0.9,0.627,0.397,19
5,2,1,0.8,0.756,0.785,20
5,2,1,0.9,0.735,0.344,21
5,2,1,0.8,0.68,0.702,22
5,1,1,0.7,1.186,0.62,23
5,1,1,0.7,1.203,0.704,24
5,2,1,0.7,2.33,0.559,25
5,1,2,0.8,1.257,0.617,26
5,2,2,0.8,0.581,0.423,27
5,1,2,0.8,0.606,0.365,28
5,2,2,0.7,1.457,0.457,29
5,2,2,0.7,0.77,0.354,30
5,1,2,0.7,0.579,0.31,31
5,1,1,0.7,0.908,0.783,32
5,2,2,0.8,0.848,0.616,33
5,2,1,0.7,0.724,0.41,34
5,1,1,0.7,0.552,0.301,35
5,2,1,0.7,0.633,0.31,36
5,2,2,0.7,1.269,0.503,37
5,1,1,0.9,0.595,0.737,38
5,2,1,0.9,0.754,2.047,39
5,1,1,0.9,0.627,0.582,40
5,1,1,0.9,0.623,0.37,41
5,2,1,0.9,0.619,0.35,42
5,1,1,0.9,1.716,0.769,43
5,1,1,0.7,0.72,0.381,44
5,2,2,0.8,1.233,0.91,45
5,1,1,0.9,0.576,0.52,46
5,1,2,0.7,0.88,1.326,47
5,2,1,0.7,0.538,0.445,48
5,2,2,0.8,3.289,1.284,49
5,2,2,0.9,0.56,0.637,50
5,1,1,0.8,0.659,0.814,51
5,2,1,0.8,0.69,0.626,52
5,2,2,0.8,0.598,0.411,53
5,2,2,0.9,0.402,0.351,54
5,1,1,0.9,0.501,0.384,55
5,1,1,0.9,0.438,0.355,56
5,1,1,0.9,0.383,0.37,57
5,2,1,0.9,0.453,0.309,58
5,2,1,0.9,0.598,0.371,59
5,1,1,0.9,1.121,1.295,60
5,1,1,0.9,0.568,0.952,61
5,2,1,0.9,0.596,0.377,62
5,2,2,0.8,1.184,0.715,63
5,1,1,0.9,0.908,0.407,64
5,1,1,0.9,0.746,0.429,65
5,1,1,0.9,0.753,0.302,66
5,2,1,0.9,1.223,0.282,67
5,1,1,0.9,1.291,0.331,68
5,2,2,0.8,1.22,0.39,69
5,2,1,0.8,1.077,0.562,70
5,1,1,0.8,0.72,0.372,71
5,2,2,0.7,0.823,0.818,72
5,1,1,0.8,1.075,0.673,73
5,2,2,0.8,0.772,0.556,74
5,1,2,0.8,0.57,0.426,75
5,1,1,0.7,0.865,0.403,76
5,1,1,0.7,0.868,1.215,77
5,2,2,0.8,1.555,0.609,78
5,2,2,0.8,0.802,0.335,79
5,1,1,0.8,1.16,0.35,80
5,2,2,0.8,1.585,0.46,81
5,1,1,0.9,0.938,1.333,82
5,2,2,0.8,1.014,0.735,83
5,1,1,0.8,0.736,0.552,84
5,2,1,0.8,0.761,0.342,85
5,2,1,0.8,0.511,0.29,86
5,2,1,0.8,0.518,0.347,87
5,1,1,0.8,0.652,0.332,88
5,1,1,0.9,0.487,1.159,89
5,2,2,0.8,0.795,0.881,90
5,2,1,0.8,0.54,0.311,91
5,1,1,0.9,0.648,0.472,92
5,1,2,0.8,0.78,0.751,93
5,2,1,0.9,0.587,0.405,94
5,1,1,0.9,0.662,0.657,95
5,2,1,0.9,0.559,0.332,96
5,1,1,0.9,0.72,0.443,97
5,2,1,0.8,0.612,0.396,98
5,1,1,0.8,0.72,0.41,99
5,2,1,0.9,0.948,0.494,100
5,2,1,0.9,1.616,0.728,1
5,2,2,0.8,1.423,0.466,2
5,1,1,0.8,0.667,0.629,3
5,1,1,0.9,0.852,0.852,4
5,1,1,0.7,1.373,0.446,5
5,1,1,0.7,0.599,0.372,6
5,2,2,0.9,0.727,0.391,7
5,2,2,0.8,0.603,0.48,8
5,1,1,0.8,0.844,0.465,9
5,2,2,0.8,1.005,0.421,10
5,1,2,0.8,0.963,0.825,11
5,2,2,0.8,1.143,0.498,12
5,1,1,0.9,0.816,0.625,13
5,2,1,0.8,1.162,0.447,14
5,1,1,0.8,1.28,0.429,15
5,2,1,0.8,1.286,0.343,16
5,1,1,0.8,0.909,0.384,17
5,2,2,0.8,0.868,0.414,18
5,1,1,0.8,0.746,1.364,19
5,2,2,0.9,0.859,0.733,20
5,1,1,0.9,0.734,0.575,21
5,1,2,0.8,0.872,0.733,22
5,1,1,0.8,0.844,0.545,23
5,2,2,0.9,0.612,2.156,24
5,2,1,0.9,1.467,0.958,25
5,2,2,0.9,0.616,1.8,26
5,2,2,0.9,0.662,0.585,27
5,1,1,0.8,1.307,0.717,28
5,1,1,0.8,1.102,0.449,29
5,2,2,0.8,1.061,0.4,30
5,1,1,0.9,0.873,0.406,31
5,1,1,0.9,0.898,0.444,32
5,1,1,0.8,0.52,0.501,33
5,2,2,0.9,0.753,0.574,34
5,2,1,0.9,0.586,0.677,35
5,2,2,0.9,1.137,0.577,36
5,1,1,0.8,0.692,0.653,37
5,1,1,0.9,0.659,0.406,38
5,2,1,0.8,0.59,0.657,39
5,2,2,0.8,0.72,0.485,40
5,2,1,0.8,0.64,0.406,41
5,1,1,0.7,0.733,0.564,42
5,1,1,0.8,0.469,0.352,43
5,1,2,0.8,0.921,0.574,44
5,2,1,0.8,0.69,0.306,45
5,2,1,0.8,0.416,0.472,46
5,2,2,0.7,0.932,0.908,47
5,2,1,0.8,0.664,0.362,48
5,1,1,0.9,0.774,0.606,49
5,1,1,0.9,0.521,0.423,50
5,2,1,0.9,0.59,0.272,51
5,1,1,0.9,0.505,0.244,52
5,1,2,0.9,0.546,0.468,53
5,2,2,0.7,1.394,0.6,54
5,1,2,0.7,0.82,0.622,55
5,2,2,0.8,0.72,0.418,56
5,1,1,0.9,0.8,0.614,57
5,2,2,0.8,0.876,0.49,58
5,1,2,0.8,1.275,0.44,59
5,2,2,0.9,0.897,0.385,60
5,1,1,0.9,1.168,1.08,61
5,2,2,0.8,2.463,0.541,62
5,2,1,0.8,1.389,0.64,63
5,1,1,0.9,0.601,0.518,64
5,1,1,0.9,0.962,0.407,65
5,1,1,0.8,1.491,0.435,66
5,2,1,0.8,1.162,0.367,67
5,1,1,0.8,0.952,1.181,68
5,2,2,0.8,0.743,0.633,69
5,1,1,0.8,0.794,0.672,70
5,1,1,0.9,0.681,0.542,71
5,2,2,0.8,1.423,0.53,72
5,2,2,0.7,0.625,0.755,73
5,2,2,0.7,0.759,0.38,74
5,1,1,0.9,0.627,0.893,75
5,1,1,0.9,0.631,0.361,76
5,2,1,0.7,0.679,1.109,77
5,2,2,0.7,0.595,0.481,78
5,1,1,0.7,1.196,0.33,79
5,2,1,0.9,0.824,0.595,80
5,1,1,0.9,0.604,0.913,81
5,2,1,0.9,0.864,0.395,82
5,2,2,0.9,0.828,0.638,83
5,1,1,0.9,0.879,0.453,84
5,1,1,0.9,0.769,0.385,85
5,2,2,0.9,0.72,0.389,86
5,2,2,0.9,0.72,0.339,87
5,2,1,0.9,0.921,0.503,88
5,1,1,0.9,0.744,0.394,89
5,1,1,0.9,0.74,0.366,90
5,2,1,0.9,0.636,0.514,91
5,1,1,0.9,0.544,0.355,92
5,1,1,0.9,0.486,0.286,93
5,2,1,0.9,0.343,0.25,94
5,2,1,0.9,0.662,0.32,95
5,1,1,0.9,0.567,1.11,96
5,2,2,0.9,0.802,0.376,97
5,1,1,0.9,0.95,0.441,98
5,1,2,0.8,0.668,0.719,99
5,2,1,0.8,1.035,0.528,100
5,1,2,0.7,1.481,0.623,101
5,2,1,0.8,0.832,0.421,102
5,2,1,0.8,0.692,0.691,103
5,1,2,0.7,1.732,0.301,104
5,2,2,0.9,0.939,0.446,105
5,1,2,0.8,0.72,1.812,106
5,1,1,0.7,2.03,0.369,107
5,2,2,0.7,0.812,1.068,108
5,1,1,0.9,1.144,0.723,109
6,1,2,0.5,0.598,1.34,1
6,2,2,0.6,0.84,0.989,2
6,1,2,0.5,0.87,0.809,3
6,1,1,0.6,0.583,0.842,4
6,2,2,0.7,0.601,0.686,5
6,2,2,0.8,0.581,0.687,6
6,1,1,0.7,0.91,1.336,7
6,2,2,0.8,0.743,0.769,8
6,1,1,0.8,0.763,0.792,9
6,1,1,0.6,1.14,1.32,10
6,2,2,0.8,0.744,0.938,11
6,2,1,0.8,0.72,1.332,12
6,2,2,0.9,0.589,0.808,13
6,2,1,0.7,0.792,1.03,14
6,1,1,0.6,0.86,0.919,15
6,1,1,0.7,0.683,2.008,16
6,1,2,0.7,0.652,0.804,17
6,2,1,0.6,0.838,0.875,18
6,2,2,0.6,0.772,0.676,19
6,2,2,0.7,0.565,0.826,20
6,1,2,0.7,0.683,0.96,21
6,2,2,0.8,0.612,1.301,22
6,1,1,0.6,0.864,2.667,23
6,1,2,0.5,0.691,0.994,24
6,1,1,0.5,1.382,0.721,25
6,1,1,0.6,0.72,0.628,26
6,2,2,0.8,0.616,0.92,27
6,2,1,0.6,0.7,0.918,28
6,2,2,0.8,0.818,0.837,29
6,1,1,0.8,0.633,1.022,30
6,2,1,0.6,0.751,1.002,31
6,1,1,0.5,1.179,0.838,32
6,1,2,0.6,0.796,0.817,33
6,2,1,0.5,0.8,1.093,34
6,1,1,0.5,1.076,0.521,35
6,2,2,0.9,0.477,0.946,36
6,2,2,0.9,0.683,0.808,37
6,1,2,0.7,1.348,0.999,38
6,1,2,0.9,0.544,1.123,39
6,2,2,0.8,1.122,0.791,40
6,2,2,0.9,0.629,0.608,41
6,1,1,0.6,1.23,1.137,42
6,1,2,0.6,0.88,0.741,43
6,1,2,0.8,0.539,0.87,44
6,1,1,0.6,0.887,0.511,45
6,2,2,0.9,0.563,0.928,46
6,2,2,0.8,0.756,0.977,47
6,2,2,0.9,0.528,0.648,48
6,1,1,0.9,0.785,1.107,49
6,2,2,0.5,1.65,0.402,50
6,1,2,0.9,0.529,0.632,51
6,1,2,0.8,0.72,0.905,52
6,2,2,0.8,0.576,0.92,53
6,1,2,0.8,0.559,0.468,54
6,2,2,0.9,0.549,0.807,55
6,2,2,0.9,0.672,0.486,56
6,2,2,0.7,1.188,2.103,57
6,1,2,0.7,0.616,0.608,58
6,1,2,0.7,0.597,0.457,59
6,1,1,0.6,1.008,0.784,60
6,1,2,0.5,0.902,0.617,61
6,2,2,0.5,0.72,0.592,62
6,2,1,0.5,0.979,0.662,63
6,2,2,0.5,0.548,0.855,64
6,2,2,0.5,0.603,0.6,65
6,2,2,0.6,0.828,0.886,66
6,1,1,0.6,0.978,0.498,67
6,1,1,0.6,0.585,0.443,68
6,1,1,0.5,0.608,0.927,69
6,1,1,0.6,0.72,0.659,70
6,2,2,0.6,0.694,0.855,71
6,2,2,0.6,1.618,0.741,72
6,1,1,0.6,0.51,0.569,73
6,1,1,0.5,0.821,0.631,74
6,1,2,0.5,0.75,0.672,75
6,2,2,0.8,0.628,0.711,76
6,2,1,0.6,0.968,1.208,77
6,1,1,0.7,0.977,1.265,78
6,2,2,0.5,0.821,0.592,79
6,2,1,0.5,0.809,0.585,80
6,2,2,0.6,0.965,0.634,81
6,2,1,0.6,0.59,0.488,82
6,2,2,0.6,0.724,0.833,83
6,2,1,0.5,0.891,0.955,84
6,1,1,0.5,0.679,0.66,85
6,1,1,0.5,0.794,0.367,86
6,1,1,0.5,0.811,0.499,87
6,1,2,0.5,0.962,0.567,88
6,2,1,0.6,0.557,0.635,89
6,1,1,0.5,1.35,0.609,90
6,1,1,0.5,1.047,0.399,91
6,1,1,0.6,0.808,0.536,92
6,2,2,0.7,0.607,1.519,93
6,2,1,0.6,0.669,0.656,94
6,2,2,0.7,0.806,1.102,95
6,1,1,0.7,1.098,1.341,96
6,1,1,0.8,0.681,1.638,97
6,1,1,0.7,0.634,0.615,98
6,2,1,0.8,0.549,0.736,99
6,2,2,0.6,0.678,1.388,100
6,1,1,0.7,0.642,0.608,101
6,2,2,0.6,0.617,1.385,1
6,1,1,0.5,0.645,0.797,2
6,2,2,0.7,0.59,1.129,3
6,1,2,0.6,1.05,0.77,4
6,1,2,0.6,0.989,0.92,5
6,2,2,0.6,0.575,0.471,6
6,2,2,0.7,0.552,0.685,7
6,2,2,0.5,0.651,0.675,8
6,1,1,0.7,0.583,1.186,9
6,1,2,0.7,0.595,0.752,10
6,2,2,0.7,0.567,0.855,11
6,1,2,0.7,0.658,0.909,12
6,1,1,0.7,0.75,0.513,13
6,1,2,0.5,0.786,0.965,14
6,1,1,0.6,0.616,0.504,15
6,2,2,0.6,0.791,0.529,16
6,2,1,0.5,1.224,0.507,17
6,2,2,0.7,0.521,0.982,18
6,2,1,0.5,0.906,0.565,19
6,2,2,0.8,0.617,0.553,20
6,1,2,0.6,0.938,2.162,21
6,1,1,0.6,0.91,1.384,22
6,1,1,0.7,0.519,1.06,23
6,2,2,0.7,0.728,0.912,24
6,2,1,0.6,0.617,1.257,25
6,1,1,0.6,0.619,0.557,26
6,2,1,0.6,0.737,0.481,27
6,1,1,0.8,0.53,0.61,28
6,1,1,0.7,0.84,0.422,29
6,2,2,0.7,0.879,0.388,30
6,1,1,0.7,0.549,0.912,31
6,1,2,0.7,0.811,0.627,32
6,2,1,0.6,0.645,0.404,33
6,2,2,0.7,0.632,0.693,34
6,2,1,0.6,0.926,0.863,35
6,1,1,0.6,0.784,1.298,36
6,1,2,0.7,0.583,1.353,37
6,2,2,0.8,0.533,1.261,38
6,2,1,0.6,0.748,1.542,39
6,2,2,0.8,0.573,0.517,40
6,1,1,0.6,1.067,0.934,41
6,1,1,0.8,0.759,0.82,42
6,2,1,0.5,0.79,0.68,43
6,2,2,0.8,0.55,0.785,44
6,1,1,0.6,1.389,1.008,45
6,1,1,0.5,1.734,0.726,46
6,2,2,0.7,0.605,0.741,47
6,1,2,0.8,0.592,0.478,48
6,2,2,0.5,1.46,0.471,49
6,2,2,0.5,0.923,0.472,50
6,1,1,0.6,0.743,1.377,51
6,1,2,0.5,0.603,0.528,52
6,2,2,0.6,0.561,0.718,53
6,2,2,0.7,0.589,0.591,54
6,2,2,0.7,0.72,0.965,55
6,1,1,0.5,1.556,0.77,56
6,1,1,0.5,1.211,0.507,57
6,2,2,0.9,0.497,0.769,58
6,1,2,0.7,1.072,1.565,59
6,1,1,0.5,1.284,0.625,60
6,2,1,0.5,0.917,0.554,61
6,1,1,0.7,0.763,1.056,62
6,1,1,0.6,0.722,0.695,63
6,1,1,0.7,0.541,0.736,64
6,2,2,0.8,0.722,0.574,65
6,2,1,0.5,0.797,0.706,66
6,2,2,0.8,0.798,1.171,67
6,2,2,0.7,0.602,0.799,68
6,1,1,0.7,0.597,0.387,69
6,1,2,0.5,1.001,0.51,70
6,2,2,0.9,0.463,0.994,71
6,1,1,0.7,0.931,1.003,72
6,2,2,0.8,0.578,0.618,73
6,1,1,0.8,0.664,0.483,74
6,2,2,0.9,0.598,0.684,75
6,1,1,0.7,0.739,0.709,76
6,2,2,0.6,1.259,1.294,77
6,2,2,0.5,0.882,0.447,78
6,1,1,0.5,0.696,1,79
6,1,2,0.5,0.94,0.759,80
6,2,1,0.5,0.565,0.901,81
6,2,2,0.6,0.788,0.862,82
6,1,1,0.5,1.069,0.799,83
6,1,1,0.5,0.678,0.747,84
6,2,2,0.5,0.751,0.53,85
6,1,1,0.7,0.576,1.44,86
6,2,2,0.6,0.73,0.561,87
6,2,2,0.7,0.626,1.069,88
6,1,1,0.7,0.907,0.854,89
6,1,1,0.7,0.754,1.191,90
6,2,2,0.5,0.771,0.731,91
6,2,2,0.6,0.642,0.879,92
6,1,1,0.5,0.752,0.925,93
6,1,2,0.5,0.803,0.505,94
6,1,1,0.6,0.623,0.69,95
6,2,2,0.8,0.603,0.832,96
6,2,2,0.8,0.519,0.917,97
6,2,1,0.5,0.877,0.642,98
6,1,1,0.5,0.742,0.561,99
6,1,2,0.5,0.583,0.69,100
6,1,2,0.6,0.638,0.667,101
6,2,2,0.6,1.215,1.007,1
6,1,1,0.6,0.611,0.571,2
6,2,2,0.6,0.633,1.414,3
6,1,1,0.5,1.434,0.336,4
6,2,2,0.5,1.169,0.521,5
6,2,2,0.6,0.525,0.626,6
6,1,1,0.5,0.926,0.662,7
6,1,2,0.7,0.495,1.799,8
6,2,2,0.7,0.635,0.584,9
6,2,1,0.5,1.502,0.481,10
6,1,1,0.5,0.661,0.607,11
6,2,2,0.6,0.662,0.536,12
6,2,2,0.7,0.72,0.521,13
6,1,1,0.6,0.635,1.256,14
6,1,2,0.6,0.721,0.438,15
6,2,2,0.5,1.263,0.69,16
6,2,2,0.7,0.598,0.611,17
6,2,1,0.6,0.99,0.729,18
6,2,2,0.7,0.621,1.064,19
6,1,1,0.6,0.531,2.091,20
6,1,1,0.5,0.725,0.733,21
6,1,2,0.6,0.609,0.553,22
6,2,2,0.5,0.615,1.399,23
6,2,2,0.7,0.497,0.792,24
6,1,1,0.6,0.756,1.009,25
6,1,2,0.5,0.651,0.755,26
6,1,2,0.5,1.268,0.823,27
6,2,1,0.5,0.81,0.674,28
6,1,2,0.5,0.638,0.531,29
6,2,2,0.7,0.565,0.858,30
6,1,1,0.7,0.656,0.88,31
6,2,2,0.9,0.602,1.039,32
6,1,1,0.9,0.685,0.773,33
6,2,2,0.8,0.82,0.766,34
6,1,1,0.9,0.602,0.784,35
6,2,2,0.8,0.822,0.641,36
6,2,2,0.7,0.777,0.698,37
6,1,2,0.8,0.688,0.72,38
6,1,1,0.6,0.545,1.252,39
6,1,1,0.7,0.824,1.074,40
6,1,2,0.5,0.635,0.545,41
6,2,2,0.6,0.788,0.623,42
6,2,2,0.6,0.933,0.701,43
6,1,2,0.5,0.667,0.638,44
6,2,1,0.6,0.789,0.559,45
6,2,2,0.8,0.526,0.949,46
6,2,2,0.7,0.599,1.38,47
6,2,2,0.7,0.64,0.429,48
6,1,1,0.5,1.113,0.646,49
6,1,1,0.5,0.839,0.668,50
6,1,1,0.6,0.576,0.632,51
6,2,2,0.8,0.617,0.585,52
6,2,2,0.8,0.592,0.445,53
6,1,2,0.7,0.676,0.865,54
6,1,1,0.8,0.72,0.78,55
6,1,2,0.8,0.664,0.859,56
6,2,2,0.8,0.72,0.393,57
6,1,1,0.8,0.762,2.031,58
6,1,1,0.8,0.774,0.398,59
6,2,2,0.7,0.81,0.418,60
6,2,2,0.8,0.536,0.672,61
6,2,2,0.8,0.761,0.326,62
6,2,2,0.9,0.549,0.48,63
6,1,2,0.7,0.816,0.776,64
6,1,1,0.6,1.255,1.071,65
6,2,2,0.7,0.664,0.923,66
6,2,2,0.8,0.575,1.351,67
6,1,1,0.8,0.608,1.079,68
6,1,1,0.6,0.609,0.833,69
6,2,2,0.8,0.548,0.567,70
6,1,1,0.6,0.635,0.768,71
6,1,1,0.5,1.574,0.343,72
6,1,1,0.6,0.731,0.987,73
6,1,1,0.5,1.244,0.809,74
6,2,2,0.7,0.503,0.922,75
6,2,1,0.6,0.806,0.798,76
6,2,2,0.6,0.735,0.831,77
6,2,2,0.7,0.605,1.269,78
6,2,2,0.5,0.737,0.513,79
6,1,2,0.7,0.546,1.269,80
6,2,2,0.8,0.564,0.505,81
6,1,1,0.7,0.997,1.098,82
6,1,1,0.5,0.985,0.779,83
6,2,2,0.8,0.588,0.495,84
6,1,1,0.5,2.056,0.432,85
6,2,2,0.5,1.327,0.374,86
6,1,1,0.7,0.543,1.858,87
6,1,1,0.8,0.505,0.491,88
6,2,2,0.6,0.733,0.957,89
6,1,1,0.7,0.816,1.704,90
6,2,2,0.6,0.607,0.695,91
6,1,2,0.6,0.72,0.525,92
6,2,2,0.7,0.686,0.646,93
6,2,2,0.7,0.72,0.388,94
6,2,2,0.7,0.494,0.541,95
6,2,1,0.5,1.281,0.565,96
6,1,1,0.6,0.72,0.712,97
6,1,1,0.7,0.72,0.916,98
6,2,2,0.7,0.544,0.786,99
6,1,1,0.7,0.603,0.64,100
6,2,2,0.8,0.596,0.385,101
6,1,2,0.5,0.6,0.957,1
6,1,2,0.7,0.561,1.766,2
6,1,2,0.5,1.384,0.306,3
6,2,1,0.5,0.494,0.446,4
6,2,2,0.5,0.548,0.423,5
6,2,1,0.5,0.72,0.637,6
6,2,2,0.5,0.86,0.558,7
6,1,1,0.5,0.911,0.578,8
6,1,2,0.7,0.449,1.144,9
6,1,2,0.6,0.644,0.921,10
6,2,2,0.7,0.779,0.813,11
6,1,1,0.5,0.857,0.516,12
6,1,1,0.5,0.765,0.354,13
6,2,2,0.7,0.54,1.629,14
6,1,2,0.7,0.655,0.495,15
6,2,2,0.8,0.64,0.381,16
6,2,1,0.6,0.761,0.79,17
6,2,1,0.6,0.653,0.605,18
6,2,2,0.8,0.609,1.12,19
6,2,2,0.6,0.54,0.607,20
6,1,1,0.7,0.864,1.035,21
6,1,1,0.8,0.804,0.641,22
6,1,2,0.5,0.842,0.632,23
6,2,2,0.7,0.611,0.859,24
6,1,2,0.5,1.045,0.604,25
6,2,2,0.6,0.805,0.653,26
6,1,1,0.6,0.652,0.604,27
6,1,1,0.6,0.605,0.549,28
6,1,1,0.7,0.614,0.742,29
6,2,2,0.5,0.9,0.623,30
6,1,1,0.6,0.566,0.421,31
6,2,2,0.6,0.734,0.766,32
6,2,1,0.6,0.661,0.447,33
6,1,2,0.5,0.992,0.67,34
6,2,1,0.6,0.551,0.722,35
6,2,1,0.5,1.12,0.542,36
6,1,1,0.5,0.87,1.377,37
6,2,2,0.7,0.573,0.933,38
6,2,2,0.8,0.545,0.507,39
6,1,2,0.7,0.596,0.914,40
6,1,1,0.8,0.72,1.411,41
6,1,1,0.7,0.77,0.745,42
6,2,2,0.8,0.48,0.501,43
6,2,2,0.8,0.531,0.675,44
6,1,1,0.7,0.676,0.465,45
6,1,2,0.5,0.72,0.781,46
6,2,2,0.6,0.689,0.704,47
6,1,1,0.5,0.804,0.69,48
6,2,2,0.5,1.125,0.574,49
6,2,2,0.6,0.545,1.02,50
6,1,2,0.6,0.659,0.589,51
6,1,2,0.6,0.638,0.323,52
6,2,2,0.7,0.652,0.42,53
6,2,2,0.7,0.624,1.41,54
6,1,2,0.5,1.004,0.641,55
6,2,2,0.8,0.504,0.898,56
6,1,2,0.5,0.753,0.686,57
6,1,1,0.6,0.677,0.53,58
6,1,2,0.7,0.621,0.728,59
6,1,1,0.5,0.876,0.674,60
6,2,1,0.6,0.733,0.549,61
6,2,2,0.5,0.51,0.657,62
6,2,2,0.5,0.887,0.551,63
6,2,1,0.6,0.542,0.488,64
6,1,1,0.5,0.737,1.049,65
6,2,2,0.7,0.573,0.869,66
6,1,2,0.7,0.72,0.452,67
6,1,1,0.7,0.773,0.709,68
6,2,2,0.5,0.856,0.552,69
6,1,1,0.5,0.582,0.561,70
6,1,2,0.5,0.866,0.661,71
6,2,1,0.6,0.491,0.539,72
6,2,1,0.7,0.609,0.545,73
6,2,2,0.6,0.72,0.784,74
6,1,1,0.7,0.67,0.888,75
6,2,1,0.5,0.778,0.498,76
6,2,2,0.5,1.373,0.814,77
6,1,1,0.6,0.532,0.508,78
6,1,1,0.6,0.735,0.375,79
6,2,2,0.6,0.579,0.574,80
6,1,1,0.6,0.564,0.449,81
6,1,1,0.5,1.152,0.973,82
6,2,1,0.5,0.58,0.678,83
6,1,1,0.5,1.052,0.589,84
6,2,1,0.6,0.536,0.672,85
6,1,2,0.7,0.772,0.596,86
6,1,1,0.7,0.61,1.122,87
6,2,1,0.5,0.931,0.627,88
6,2,2,0.7,0.72,0.708,89
6,1,1,0.7,0.509,0.64,90
6,2,1,0.7,0.734,0.494,91
6,1,1,0.7,0.661,0.527,92
6,2,2,0.8,0.694,0.454,93
6,1,1,0.7,0.666,0.58,94
6,2,2,0.7,0.634,1.424,95
6,1,1,0.7,0.521,0.407,96
6,2,2,0.7,0.592,0.677,97
6,1,2,0.5,0.857,0.809,98
6,1,2,0.7,0.72,1.325,99
6,2,2,0.6,1.166,0.95,100
6,2,2,0.6,0.658,0.682,1
6,2,2,0.7,0.47,0.792,2
6,1,1,0.6,1.258,0.73,3
6,1,1,0.5,0.824,0.347,4
6,2,2,0.6,0.516,0.449,5
6,2,1,0.5,0.855,0.831,6
6,1,2,0.5,0.766,0.526,7
6,2,1,0.5,0.673,0.911,8
6,1,2,0.6,0.837,1.403,9
6,1,1,0.5,1.228,0.479,10
6,2,1,0.5,0.757,0.45,11
6,2,2,0.7,0.665,0.787,12
6,1,1,0.7,0.72,0.668,13
6,2,2,0.5,1.107,0.638,14
6,1,2,0.6,0.678,0.404,15
6,2,2,0.5,0.696,0.968,16
6,2,2,0.6,0.686,0.654,17
6,2,2,0.6,0.583,0.418,18
6,1,2,0.5,2.123,0.481,19
6,1,1,0.5,0.847,0.439,20
6,1,1,0.6,0.893,0.765,21
6,1,1,0.5,1.209,0.657,22
6,1,1,0.6,0.639,0.485,23
6,2,2,0.7,0.582,0.536,24
6,2,2,0.8,0.484,0.625,25
6,1,2,0.8,0.749,0.503,26
6,2,2,0.8,0.638,0.411,27
6,1,2,0.5,1.209,0.433,28
6,2,2,0.7,0.594,0.688,29
6,1,1,0.5,1.162,1.454,30
6,2,2,0.8,0.554,0.631,31
6,2,2,0.8,0.547,0.405,32
6,1,2,0.7,0.673,0.607,33
6,2,2,0.7,0.581,0.703,34
6,1,2,0.8,0.694,0.606,35
6,1,2,0.7,0.783,0.626,36
6,2,2,0.8,0.795,1.264,37
6,1,1,0.5,0.953,0.591,38
6,1,1,0.7,0.629,0.72,39
6,2,1,0.7,0.529,0.513,40
6,1,1,0.6,0.671,1.458,41
6,2,2,0.7,0.654,0.918,42
6,2,2,0.8,0.537,0.665,43
6,2,2,0.9,0.757,0.554,44
6,1,1,0.5,1.222,0.569,45
6,2,2,0.7,0.687,1.255,46
6,1,2,0.6,0.739,0.67,47
6,2,2,0.5,0.785,0.836,48
6,1,1,0.5,0.637,0.299,49
6,1,1,0.7,0.959,1.388,50
6,2,2,0.5,0.674,0.56,51
6,2,1,0.5,0.683,2.609,52
6,1,2,0.6,0.875,0.648,53
6,2,2,0.6,0.72,1.012,54
6,1,2,0.5,1.17,0.538,55
6,2,1,0.6,0.856,0.68,56
6,1,2,0.6,0.516,0.522,57
6,1,1,0.5,0.805,1.165,58
6,1,2,0.5,0.734,0.742,59
6,2,2,0.7,0.474,0.727,60
6,2,2,0.6,0.739,1.39,61
6,2,1,0.5,0.986,0.356,62
6,2,2,0.5,0.566,0.477,63
6,1,2,0.5,0.937,1.129,64
6,1,1,0.6,0.65,0.522,65
6,2,1,0.6,0.72,0.403,66
6,1,1,0.6,0.756,0.529,67
6,1,1,0.5,0.723,0.768,68
6,2,2,0.7,0.606,1.174,69
6,1,1,0.7,1.007,1.608,70
6,1,1,0.7,0.694,0.446,71
6,2,1,0.7,0.599,0.332,72
6,1,2,0.8,0.632,0.965,73
6,1,1,0.7,0.644,0.457,74
6,2,2,0.9,0.687,0.896,75
6,2,1,0.8,0.612,0.323,76
6,2,2,0.5,1.26,1.191,77
6,2,2,0.7,0.614,1.566,78
6,2,2,0.9,0.628,0.647,79
6,2,2,0.7,0.797,1.699,80
6,1,1,0.6,0.676,1.274,81
6,1,1,0.6,0.696,0.448,82
6,1,1,0.6,0.569,0.369,83
6,2,2,0.6,0.599,0.644,84
6,1,1,0.5,1.115,0.248,85
6,2,2,0.5,0.606,1.006,86
6,2,2,0.6,0.522,0.455,87
6,1,1,0.5,0.72,0.838,88
6,2,2,0.5,0.777,0.433,89
6,1,2,0.5,1.016,0.32,90
6,1,1,0.6,0.548,0.734,91
6,2,1,0.5,0.554,0.495,92
6,1,1,0.6,0.544,0.482,93
6,2,2,0.5,0.574,0.918,94
6,2,2,0.6,0.567,0.359,95
6,2,2,0.7,0.504,0.707,96
6,1,1,0.6,0.74,0.759,97
6,2,2,0.8,0.568,0.632,98
6,1,1,0.5,0.681,0.998,99
6,1,2,0.5,0.986,0.684,100
6,1,2,0.5,0.891,0.635,101
6,2,2,0.5,0.961,0.407,102
6,1,1,0.6,0.992,1.205,103
6,1,1,0.5,0.649,0.689,104
6,1,1,0.5,0.679,0.437,105
6,1,1,0.5,0.584,0.459,106
6,2,2,0.6,0.574,0.591,107
6,2,2,0.5,0.853,0.549,108
6,2,2,0.6,0.686,0.59,109
7,2,2,0.9,0.904,0.835,1
7,2,1,0.8,1.092,0.332,2
7,1,1,0.8,0.898,0.253,3
7,1,1,0.8,1.606,0.166,4
7,2,1,0.7,1.285,0.421,5
7,1,1,0.7,0.992,0.318,6
7,1,1,0.6,1.282,0.399,7
7,2,2,0.8,0.747,0.733,8
7,1,1,0.7,0.993,0.215,9
7,1,2,0.7,1.303,0.138,10
7,1,1,0.9,0.958,0.243,11
7,2,1,0.9,1.25,0.058,12
7,1,1,0.8,2.503,0.095,13
7,2,2,1,1.308,0.295,14
7,2,2,0.8,1.435,0.256,15
7,2,1,0.7,1.633,0.311,16
7,1,2,0.7,1.139,0.213,17
7,1,2,0.7,1.131,0.14,18
7,2,2,0.8,0.762,0.599,19
7,1,1,0.7,1.867,0.102,20
7,1,2,0.8,1.41,0.075,21
7,2,2,1,1.147,0.19,22
7,2,2,0.9,1.284,0.228,23
7,2,2,0.9,0.795,0.52,24
7,1,1,0.7,1.087,0.559,25
7,1,1,0.8,1.205,0.181,26
7,2,2,0.8,0.72,0.26,27
7,2,2,0.9,0.983,0.346,28
7,1,1,0.7,1.446,0.102,29
7,2,2,1,0.86,0.399,30
7,2,2,0.8,0.998,0.515,31
7,1,2,0.8,1.535,0.135,32
7,1,2,0.7,1.618,0.11,33
7,2,2,0.7,1.257,0.129,34
7,1,1,0.7,0.938,0.149,35
7,2,2,0.7,1.115,0.121,36
7,2,2,1,0.562,0.575,37
7,2,2,0.9,0.982,0.208,38
7,1,1,1,1.425,0.116,39
7,1,1,0.7,1.183,0.218,40
7,1,1,0.8,1.076,0.209,41
7,2,2,1,1.437,0.13,42
7,2,2,1,1.352,0.118,43
7,1,1,1,0.97,0.522,44
7,1,1,1,1.581,0.12,45
7,1,2,1,1.522,0.087,46
7,2,2,0.7,1.488,0.152,47
7,2,2,1,0.942,0.321,48
7,2,2,1,0.933,0.317,49
7,1,1,0.8,1.038,0.26,50
7,1,1,1,0.97,0.17,51
7,1,1,1,1.893,0.198,52
7,1,1,0.7,1.919,0.109,53
7,2,2,0.9,0.787,0.733,54
7,2,2,1,0.593,0.303,55
7,2,2,1,0.747,0.229,56
7,2,2,1,0.534,0.278,57
7,2,2,1,0.649,0.201,58
7,2,2,1,0.541,0.216,59
7,1,1,1,1.478,0.187,60
7,1,1,1,1.322,0.271,61
7,1,1,1,0.808,0.28,62
7,1,2,0.6,1.463,4.521,63
7,2,1,0.7,1.316,0.329,64
7,2,2,0.8,2.836,0.209,65
7,1,1,0.7,1.583,0.122,66
7,2,2,0.7,1.104,0.211,67
7,1,2,0.7,2.77,0.138,68
7,2,2,1,0.958,0.763,69
7,2,2,1,1.132,0.196,70
7,1,2,1,1.45,0.123,71
7,1,1,1,0.857,0.201,72
7,2,2,1,1.055,0.287,73
7,1,1,1,0.829,0.216,74
7,2,1,1,1.948,0.143,75
7,2,2,1,1.184,0.162,76
7,1,1,1,1.369,0.441,77
7,1,1,1,1.208,0.16,78
7,1,1,1,0.753,0.15,79
7,2,1,1,0.881,0.207,80
7,1,1,1,0.666,0.141,81
7,2,2,1,1.475,0.144,82
7,2,2,1,1.719,0.149,83
7,2,2,1,1.053,0.182,84
7,1,2,1,1.063,0.154,85
7,1,2,0.7,2.636,0.137,86
7,2,2,1,0.628,0.303,87
7,1,1,0.9,0.789,0.792,88
7,2,1,0.9,1.497,0.121,89
7,1,1,0.9,1.069,0.127,90
7,2,2,1,0.976,0.201,91
7,1,1,0.7,1.847,0.143,92
7,2,2,0.9,0.891,0.971,93
7,1,1,0.7,1.319,1.228,94
7,1,1,0.8,0.83,0.448,95
7,2,2,0.9,0.935,0.807,96
7,1,1,0.8,1.181,0.6,97
7,2,2,0.9,1.033,0.207,98
7,2,1,0.7,1.789,0.111,99
7,2,2,0.7,1.473,0.19,100
7,1,1,0.7,1.594,0.167,101
7,1,1,0.8,1.519,0.109,1
7,2,2,0.8,0.836,0.12,2
7,1,1,0.8,0.761,0.167,3
7,2,2,0.8,0.56,0.253,4
7,2,2,0.8,1.086,0.158,5
7,1,2,0.8,0.938,0.18,6
7,2,2,0.8,0.579,0.125,7
7,1,2,0.7,2.609,0.119,8
7,1,2,0.8,1.613,0.453,9
7,1,1,0.7,1.478,0.156,10
7,2,2,0.7,1.944,0.122,11
7,2,2,0.8,1.118,0.26,12
7,1,1,0.8,0.973,0.469,13
7,2,2,0.7,1.372,0.14,14
7,1,1,0.7,1.013,0.621,15
7,1,1,0.8,0.931,0.355,16
7,2,1,0.7,1.175,0.151,17
7,2,2,0.8,1.229,0.296,18
7,1,1,0.7,1.457,0.138,19
7,1,1,0.7,1.2,0.141,20
7,2,1,0.8,1.601,0.223,21
7,1,1,0.8,0.994,0.112,22
7,1,1,0.8,1.003,0.136,23
7,1,2,0.7,1.89,0.09,24
7,2,2,0.8,0.795,0.176,25
7,2,1,0.8,1.068,0.415,26
7,2,2,0.8,0.605,0.261,27
7,1,1,0.8,2.169,0.089,28
7,1,1,0.7,0.794,0.32,29
7,2,2,0.8,1.104,0.467,30
7,1,1,0.7,0.908,0.639,31
7,2,2,0.8,0.656,0.168,32
7,1,1,0.8,0.799,0.5,33
7,2,2,0.9,0.597,0.53,34
7,2,2,0.7,1.307,1.166,35
7,1,1,0.7,1.842,0.152,36
7,1,2,0.7,1.332,0.172,37
7,2,2,1,1.05,0.33,38
7,2,1,0.7,3.796,0.122,39
7,2,1,0.7,2.08,0.246,40
7,1,2,0.7,1.567,0.087,41
7,2,1,0.7,1.768,0.432,42
7,1,1,0.7,1.745,0.156,43
7,1,2,0.7,1.552,0.149,44
7,1,1,0.7,1.563,0.073,45
7,2,2,0.9,1.05,0.154,46
7,2,2,1,0.696,0.456,47
7,1,2,0.9,1.855,0.175,48
7,1,1,0.7,1.344,0.099,49
7,2,2,0.7,1.641,0.183,50
7,2,2,0.8,0.978,0.109,51
7,2,2,0.8,1.147,0.262,52
7,2,2,0.7,0.871,1.074,53
7,2,2,0.7,0.861,0.128,54
7,1,2,0.8,0.655,0.798,55
7,2,2,0.7,1.317,0.162,56
7,1,1,0.7,1.609,0.137,57
7,1,1,0.7,1.117,0.13,58
7,1,1,0.8,0.699,0.285,59
7,1,2,0.7,2.147,0.119,60
7,2,1,0.7,0.944,0.267,61
7,2,2,0.7,1.409,0.497,62
7,2,2,0.7,1.01,0.17,63
7,1,1,0.8,1.16,0.534,64
7,1,2,0.7,1.636,0.138,65
7,2,2,0.8,0.787,0.222,66
7,1,1,0.7,1.66,0.391,67
7,1,1,0.9,1.16,0.405,68
7,1,1,0.8,1.11,0.385,69
7,2,2,0.8,1.101,0.216,70
7,1,1,0.8,1.369,0.569,71
7,2,2,0.7,1.493,0.173,72
7,1,1,0.7,1.382,0.249,73
7,2,1,0.7,1.487,0.135,74
7,2,2,0.8,1.192,0.182,75
7,1,2,0.8,1.25,0.202,76
7,2,2,0.8,0.87,0.272,77
7,2,2,1,0.996,0.265,78
7,1,1,0.8,1.08,0.261,79
7,2,2,0.8,0.587,0.222,80
7,2,2,0.7,1.633,0.159,81
7,1,1,0.7,1.965,1.094,82
7,1,2,0.7,0.72,0.372,83
7,1,2,0.7,1.547,0.118,84
7,2,2,0.8,0.72,0.332,85
7,1,2,0.8,1.072,0.653,86
7,2,2,0.7,1.873,0.11,87
7,2,2,0.8,1.234,0.176,88
7,1,1,1,1.128,0.185,89
7,2,2,0.8,2.53,0.163,90
7,1,2,0.8,1.297,0.152,91
7,2,1,0.7,2.983,0.11,92
7,2,2,0.8,0.884,0.281,93
7,1,1,0.9,1.396,0.09,94
7,1,1,0.8,1.054,0.254,95
7,1,2,0.7,1.665,0.197,96
7,2,2,0.8,0.753,0.214,97
7,2,2,1,1.111,0.204,98
7,1,1,0.7,1.314,0.136,99
7,2,2,0.8,1.22,0.191,100
7,1,1,0.7,2.609,0.099,101
7,2,2,0.8,1.045,0.157,1
7,2,2,0.7,1.804,0.137,2
7,1,1,0.7,1.442,0.104,3
7,1,2,0.7,1.208,0.441,4
7,2,2,0.8,1.364,0.125,5
7,1,1,0.7,1.677,0.115,6
7,2,2,0.8,0.647,0.423,7
7,1,2,0.8,1.037,0.146,8
7,2,2,0.8,0.683,0.177,9
7,2,2,0.8,0.604,0.162,10
7,1,1,0.8,1.688,0.08,11
7,2,2,0.8,1.188,0.199,12
7,1,2,0.8,1.301,0.184,13
7,1,1,1,1.166,0.182,14
7,2,2,0.9,1.063,0.202,15
7,2,2,0.9,0.961,0.278,16
7,1,1,0.7,1.412,0.109,17
7,1,1,0.7,0.984,0.587,18
7,1,1,0.8,1.29,0.121,19
7,2,2,0.8,1.259,0.19,20
7,1,2,0.8,1.151,0.202,21
7,2,2,1,0.957,0.235,22
7,1,2,0.8,1.491,0.148,23
7,1,1,0.7,1.322,0.176,24
7,1,2,0.8,0.846,0.158,25
7,2,2,0.7,1.479,0.461,26
7,2,2,0.8,1.005,0.366,27
7,2,2,0.8,0.762,0.271,28
7,2,2,0.8,1.189,0.352,29
7,1,2,0.7,1.332,0.3,30
7,1,2,0.8,1.08,0.493,31
7,2,2,0.8,1.566,0.158,32
7,1,2,0.8,1.159,0.244,33
7,2,2,0.8,0.933,0.165,34
7,2,2,0.8,0.889,0.177,35
7,1,1,0.7,1.255,0.184,36
7,1,2,0.7,1.08,0.374,37
7,2,2,0.8,0.812,0.26,38
7,2,2,0.8,0.6,0.205,39
7,2,2,0.8,0.62,0.246,40
7,2,2,0.8,1.194,0.216,41
7,1,1,0.8,1.56,0.15,42
7,1,1,0.8,1.223,0.266,43
7,1,1,0.7,0.893,0.829,44
7,1,1,0.8,1.204,0.145,45
7,2,2,0.9,1.685,0.101,46
7,2,2,0.9,1.188,0.438,47
7,2,1,0.7,1.917,0.267,48
7,2,2,1,1.019,0.63,49
7,2,2,1,1.061,0.192,50
7,1,1,0.9,1.201,0.43,51
7,1,2,0.7,1.54,0.151,52
7,1,2,0.7,1.592,0.39,53
7,1,1,0.7,1.247,0.639,54
7,2,2,0.8,0.757,0.251,55
7,2,2,0.8,0.753,0.166,56
7,2,2,0.8,0.674,0.167,57
7,1,1,0.9,1.441,0.166,58
7,2,2,1,0.857,0.481,59
7,1,1,0.7,1.387,0.173,60
7,1,1,0.8,1.036,0.185,61
7,1,2,0.8,0.957,0.202,62
7,1,1,0.9,0.985,0.387,63
7,2,1,0.7,2.489,0.141,64
7,1,1,0.8,0.958,0.235,65
7,2,1,0.7,0.903,0.49,66
7,2,2,0.7,2.503,1.708,67
7,1,2,0.7,1.082,0.208,68
7,1,1,0.7,1.003,0.249,69
7,2,2,0.8,0.72,0.466,70
7,1,1,0.8,0.904,0.491,71
7,1,1,0.7,1.218,0.116,72
7,1,2,0.7,1.269,0.2,73
7,2,2,0.8,0.756,0.137,74
7,2,2,0.8,0.994,0.264,75
7,1,2,0.7,1.267,0.166,76
7,2,2,0.8,0.957,0.162,77
7,2,2,0.8,0.525,0.117,78
7,1,1,0.8,1.235,0.105,79
7,1,1,0.7,1.532,0.101,80
7,2,2,0.8,0.622,0.273,81
7,2,2,0.8,1.679,0.133,82
7,1,2,0.8,1.387,0.134,83
7,1,1,0.8,1.321,0.366,84
7,2,2,0.7,1.629,0.16,85
7,2,2,0.7,0.606,0.798,86
7,1,1,0.7,1.413,0.109,87
7,2,2,0.7,0.62,0.454,88
7,2,2,0.7,1.743,0.122,89
7,1,1,0.7,1.07,0.225,90
7,2,2,0.7,1.402,0.167,91
7,1,2,0.7,1.328,0.224,92
7,1,1,0.9,1.409,0.162,93
7,2,2,0.7,2.239,0.107,94
7,1,2,0.7,2.33,0.239,95
7,2,2,0.7,1.019,0.198,96
7,1,1,0.7,2.041,0.135,97
7,2,2,0.8,1.616,0.28,98
7,2,2,0.7,1.612,0.117,99
7,2,2,0.7,1.144,0.163,100
7,1,2,0.6,2.703,0.072,101
7,1,2,0.7,1.555,0.112,1
7,1,1,0.7,1.481,0.127,2
7,2,2,0.7,0.832,0.189,3
7,1,1,0.7,1.51,0.081,4
7,2,2,0.7,1.031,0.106,5
7,1,1,0.7,1.445,0.118,6
7,2,2,0.7,1.278,0.14,7
7,1,2,0.7,1.632,0.125,8
7,2,2,0.8,0.972,0.276,9
7,2,2,0.8,0.826,0.885,10
7,2,1,0.7,1.091,0.107,11
7,2,2,0.7,1.159,0.149,12
7,2,1,0.6,1.368,0.144,13
7,1,1,0.7,0.966,0.095,14
7,1,1,0.7,1.567,0.392,15
7,1,1,0.7,1.449,0.065,16
7,1,1,0.7,1.127,0.112,17
7,1,2,0.7,1.528,0.073,18
7,1,2,0.7,1.543,0.034,19
7,2,2,0.7,0.867,0.094,20
7,2,2,0.8,1.722,0.103,21
7,2,2,0.8,1.328,0.056,22
7,1,2,0.8,1.38,0.094,23
7,1,1,0.7,1.704,0.043,24
7,2,2,0.8,0.913,0.062,25
7,2,2,0.8,0.879,0.277,26
7,2,2,0.8,1.304,0.099,27
7,1,2,0.8,1.351,0.106,28
7,2,2,0.8,0.661,0.272,29
7,1,2,0.7,1.353,0.055,30
7,2,2,0.8,0.573,0.117,31
7,1,1,0.7,0.843,0.081,32
7,1,1,0.7,2.239,0.042,33
7,2,2,0.8,1.381,0.064,34
7,2,2,0.8,0.721,0.071,35
7,1,2,0.7,1.576,0.048,36
7,2,2,0.8,0.768,0.104,37
7,1,2,0.8,1.01,0.114,38
7,1,2,0.8,1.205,0.037,39
7,1,2,0.7,1.628,0.055,40
7,2,2,0.7,1.389,0.552,41
7,1,1,0.7,1.796,0.017,42
7,2,2,0.7,0.923,0.04,43
7,1,2,0.7,1.182,0.065,44
7,1,1,0.7,0.815,0.048,45
7,1,1,0.7,0.781,0.04,46
7,2,2,0.7,0.619,0.038,47
7,2,2,0.7,0.741,0.023,48
7,2,2,0.7,0.677,0.051,49
7,1,1,0.7,1.017,0.009,50
7,1,2,0.7,1.428,0.023,51
7,2,2,0.7,1.027,0.022,52
7,2,2,0.7,0.98,0.047,53
7,2,2,0.8,1.413,0.117,54
7,2,2,0.7,0.72,0.054,55
7,1,2,0.7,1.885,0.021,56
7,1,1,0.7,1.585,0.02,57
7,2,2,0.8,0.817,0.037,58
7,1,1,0.8,1.192,0.029,59
7,2,2,0.7,1.971,0.044,60
7,1,2,0.7,1.229,0.76,61
7,2,2,0.7,0.734,0.062,62
7,2,2,0.7,0.577,0.049,63
7,1,2,0.7,1.013,0.077,64
7,1,1,0.6,2.057,0.089,65
7,1,2,0.7,0.732,0.061,66
7,1,2,0.7,1.387,0.046,67
7,1,2,0.7,1.537,0.044,68
7,2,2,0.8,0.658,0.069,69
7,2,2,0.7,1.278,0.028,70
7,2,2,0.7,0.72,0.044,71
7,1,1,0.7,1.002,0.056,72
7,2,2,0.8,0.681,0.038,73
7,1,1,0.7,1.201,0.04,74
7,2,2,0.8,0.72,0.014,75
7,1,2,0.8,0.577,0.049,76
7,1,2,0.8,0.86,0.047,77
7,2,2,0.8,0.558,0.075,78
7,2,1,0.7,0.969,0.065,79
7,2,2,0.7,1.109,0.071,80
7,1,2,0.7,1.115,0.032,81
7,1,2,0.7,0.986,0.052,82
7,1,1,0.7,1.794,1.368,83
7,1,2,0.7,1.225,0.132,84
7,1,2,0.7,1.224,0.099,85
7,2,1,0.7,2.147,0.071,86
7,2,2,0.7,0.994,0.056,87
7,2,2,0.8,0.638,0.076,88
7,2,2,0.8,0.655,0.079,89
7,2,2,0.8,0.883,0.072,90
7,1,1,0.7,1.593,0.063,91
7,1,1,0.8,1.186,0.069,92
7,2,2,0.8,0.888,0.057,93
7,1,2,0.8,1.268,0.055,94
7,2,2,0.8,0.72,0.069,95
7,1,2,0.8,1.296,0.153,96
7,2,2,0.9,1.225,0.116,97
7,2,2,0.9,0.752,0.549,98
7,1,1,0.9,1.513,0.054,99
7,1,1,0.7,1.443,0.04,100
7,2,2,0.8,0.956,0.194,1
7,2,2,0.8,0.574,0.101,2
7,1,2,0.7,0.921,0.046,3
7,2,2,0.8,0.527,0.055,4
7,1,2,0.7,0.989,0.136,5
7,1,2,0.7,0.966,0.046,6
7,1,2,0.8,0.952,0.069,7
7,1,2,0.8,1.168,0.057,8
7,2,2,0.8,0.927,0.319,9
7,2,2,0.8,0.549,0.056,10
7,2,2,0.8,0.547,0.078,11
7,2,2,0.8,0.546,0.084,12
7,1,1,0.8,0.821,0.048,13
7,2,2,0.8,0.542,0.073,14
7,2,2,0.7,0.85,0.082,15
7,1,1,0.7,1.189,0.04,16
7,2,2,0.7,1.292,0.076,17
7,1,1,0.7,1.669,0.04,18
7,1,1,0.7,0.796,0.033,19
7,1,1,0.7,1.434,0.024,20
7,2,2,0.8,1.305,0.044,21
7,2,2,0.8,0.967,0.055,22
7,2,2,0.8,1.04,0.253,23
7,2,2,0.8,0.759,0.06,24
7,1,1,0.8,1.26,0.039,25
7,1,1,0.8,1.008,0.136,26
7,1,1,0.8,1.447,0.023,27
7,2,2,0.7,1.565,0.021,28
7,1,1,0.8,0.926,0.342,29
7,2,2,0.8,1.373,0.045,30
7,1,2,0.8,0.955,0.072,31
7,2,2,0.8,0.598,0.052,32
7,2,2,0.8,0.684,0.066,33
7,1,2,0.7,1.176,0.064,34
7,2,2,0.8,0.833,0.062,35
7,1,2,0.8,0.927,0.055,36
7,1,2,0.8,1.275,0.049,37
7,1,2,0.8,1.423,0.033,38
7,2,2,0.8,0.898,0.037,39
7,1,2,0.8,0.595,0.072,40
7,2,2,0.8,0.668,0.047,41
7,1,2,0.7,1.81,0.034,42
7,1,1,0.7,1.43,0.041,43
7,2,2,0.8,0.908,0.055,44
7,2,2,0.7,1.968,0.041,45
7,2,2,0.8,0.766,0.047,46
7,2,2,0.8,0.61,0.066,47
7,1,2,0.8,1.876,0.025,48
7,1,2,0.8,1.271,0.069,49
7,2,2,0.8,0.547,0.07,50
7,1,1,0.8,1.625,0.004,51
7,1,2,0.7,2.136,0.033,52
7,2,2,0.8,0.767,0.039,53
7,2,2,0.7,2.649,0.049,54
7,1,1,0.8,1.231,0.052,55
7,2,2,0.7,1.507,0.03,56
7,1,2,0.8,0.804,0.041,57
7,1,1,0.7,1.426,0.029,58
7,2,2,0.8,1.518,0.028,59
7,1,1,0.8,0.754,0,60
7,2,2,0.7,1.835,0.024,61
7,2,2,0.8,0.572,0.045,62
7,1,1,0.8,2.075,0.008,63
7,1,1,0.7,1.457,0.017,64
7,1,1,0.7,0.872,0,65
7,2,2,0.8,0.577,0.041,66
7,2,2,0.8,1.234,0.04,67
7,1,1,0.8,0.952,0.062,68
7,2,2,0.8,0.553,0.006,69
7,1,2,0.8,0.618,0.018,70
7,2,2,0.8,0.536,0.032,71
7,2,2,0.8,0.496,0.04,72
7,1,2,0.8,0.527,0.047,73
7,2,2,0.8,0.514,0.016,74
7,2,2,0.8,0.848,0.017,75
7,1,2,0.8,0.72,0.007,76
7,1,2,0.8,0.573,0.045,77
7,1,2,0.8,0.597,0.027,78
7,2,2,0.8,0.652,0.028,79
7,2,2,0.8,0.512,0.021,80
7,2,2,0.8,0.598,0.011,81
7,1,2,0.7,1.385,0.052,82
7,2,2,0.8,0.69,0.051,83
7,1,1,0.7,1.318,0.011,84
7,1,1,0.7,1.018,0.324,85
7,1,1,0.7,1.357,0.251,86
7,1,1,0.7,0.953,0.007,87
7,2,2,0.8,0.586,0.029,88
7,2,2,0.8,0.622,0.024,89
7,1,2,0.7,1.444,0.033,90
7,1,2,0.7,1.669,0.016,91
7,2,2,0.8,0.809,0.041,92
7,2,2,0.8,0.618,0.013,93
7,2,2,0.8,0.781,0.008,94
7,1,2,0.8,1.233,0.023,95
7,2,2,0.8,1.383,0.002,96
7,2,2,0.8,0.643,0.049,97
7,1,2,0.8,1.334,0,98
7,1,1,0.7,1.357,0.026,99
7,1,2,0.7,1.217,0.057,100
7,2,2,0.8,1.532,0.005,101
7,2,2,0.8,0.648,0.016,102
7,1,2,0.7,1.305,0,103
7,1,1,0.7,1.319,0,104
7,2,1,0.7,1.494,0.022,105
7,2,2,0.8,0.685,0.004,106
7,1,2,0.8,0.643,0.016,107
7,2,2,0.8,1.206,0.022,108
7,1,2,0.7,1.45,0.003,109
8,1,1,0.8,0.999,0.54,1
8,1,1,0.8,1.042,0.328,2
8,1,1,0.9,0.868,0.471,3
8,2,2,0.8,0.879,0.357,4
8,2,1,0.8,0.843,0.337,5
8,2,2,0.9,0.72,0.396,6
8,2,2,0.9,0.696,0.336,7
8,1,1,0.8,0.684,0.361,8
8,2,2,0.8,0.92,0.317,9
8,2,1,0.9,0.72,0.368,10
8,1,1,0.9,0.844,0.442,11
8,2,2,0.8,1.115,0.392,12
8,2,2,0.8,0.676,0.329,13
8,1,1,0.7,0.853,0.733,14
8,1,1,0.8,1.081,0.342,15
8,1,1,0.8,0.972,0.332,16
8,1,1,0.8,0.944,0.347,17
8,2,1,0.8,0.985,0.284,18
8,1,1,0.9,0.935,0.704,19
8,2,2,0.9,1.134,0.558,20
8,2,1,0.8,1.133,0.309,21
8,1,1,0.8,1.43,0.288,22
8,1,1,0.9,0.949,0.455,23
8,2,2,0.9,1.126,0.558,24
8,2,1,0.8,1.095,0.391,25
8,1,1,0.9,0.853,0.405,26
8,1,1,0.9,0.967,0.335,27
8,1,2,0.8,1.064,0.411,28
8,2,2,0.9,0.86,0.391,29
8,1,1,0.9,0.92,0.389,30
8,2,2,0.9,0.737,0.345,31
8,2,2,0.9,1.268,0.335,32
8,1,2,0.8,1.31,0.416,33
8,2,2,0.9,1.175,0.367,34
8,2,2,0.8,1.245,0.317,35
8,2,1,0.8,1.255,0.327,36
8,1,1,0.8,1.189,0.36,37
8,1,2,0.9,1.151,0.449,38
8,1,1,0.9,0.912,0.445,39
8,2,2,0.8,1.118,0.3,40
8,2,2,0.8,1.151,0.277,41
8,1,1,0.8,0.792,0.246,42
8,1,1,0.8,0.743,0.37,43
8,1,1,0.9,1.032,0.421,44
8,2,2,0.8,1.079,0.3,45
8,1,1,0.8,0.725,0.253,46
8,2,2,0.8,1.475,0.409,47
8,2,2,0.8,1.258,0.229,48
8,2,2,0.8,1.19,0.289,49
8,1,1,0.8,0.991,0.306,50
8,1,2,0.9,1.101,0.48,51
8,2,2,0.8,1.239,0.372,52
8,1,1,0.8,0.986,0.317,53
8,2,2,0.9,0.94,0.43,54
8,1,1,0.8,0.97,0.482,55
8,2,1,0.8,1.241,0.446,56
8,2,2,0.9,0.997,0.514,57
8,1,1,0.8,0.981,0.488,58
8,2,2,0.8,1.045,0.396,59
8,2,2,0.9,0.955,0.288,60
8,2,2,0.9,0.785,0.372,61
8,1,1,0.8,1.103,0.355,62
8,1,1,0.8,0.868,0.398,63
8,1,2,0.8,1.199,0.781,64
8,1,1,0.8,1.134,0.318,65
8,2,1,0.9,0.906,0.357,66
8,2,2,0.9,1.219,0.462,67
8,1,1,0.8,1.182,0.369,68
8,1,2,0.8,1,0.421,69
8,1,1,0.8,1.571,0.332,70
8,2,2,0.8,1.517,0.426,71
8,2,2,0.8,1.308,0.374,72
8,2,2,0.9,1.183,0.594,73
8,2,1,0.8,1.339,0.318,74
8,2,2,0.8,1.116,0.362,75
8,1,2,0.8,1.256,0.401,76
8,2,2,0.8,1.258,0.325,77
8,1,1,0.8,1.057,0.4,78
8,1,1,0.7,1.146,0.604,79
8,1,2,0.8,1.174,0.35,80
8,1,2,0.8,1.388,0.295,81
8,1,1,0.8,1.093,0.325,82
8,2,2,0.8,0.993,0.366,83
8,2,1,0.8,1.067,0.365,84
8,2,2,0.8,1.123,0.417,85
8,1,1,0.8,1.031,0.285,86
8,1,1,0.9,1.174,0.854,87
8,2,2,0.8,0.946,0.492,88
8,2,1,0.8,0.848,0.328,89
8,1,2,0.8,0.828,0.279,90
8,1,1,0.9,0.941,0.432,91
8,2,1,0.7,1.232,0.422,92
8,1,1,0.8,1.037,0.53,93
8,1,1,0.9,1,0.414,94
8,2,2,0.9,0.993,0.495,95
8,2,1,0.9,1.046,0.349,96
8,2,2,0.9,0.839,0.428,97
8,1,1,0.8,0.877,0.37,98
8,2,1,0.8,0.915,0.425,99
8,2,1,0.8,0.932,0.997,100
8,1,1,0.8,1.067,0.278,101
8,2,2,0.8,1.003,0.561,1
8,1,2,0.8,1.269,0.423,2
8,1,1,0.9,0.665,0.483,3
8,2,2,0.9,0.919,0.38,4
8,1,1,0.9,0.907,0.397,5
8,1,1,0.8,0.636,0.305,6
8,2,1,0.8,0.908,0.351,7
8,1,2,0.8,0.829,0.456,8
8,2,2,0.8,0.986,0.452,9
8,2,2,0.9,0.763,0.44,10
8,1,1,0.8,0.849,0.401,11
8,1,1,0.9,0.938,0.469,12
8,2,2,0.9,1.027,0.39,13
8,1,1,0.8,0.72,0.463,14
8,2,1,0.8,0.878,0.379,15
8,1,1,0.8,0.673,0.327,16
8,2,2,0.8,0.735,0.391,17
8,1,1,0.8,1.011,0.388,18
8,2,2,0.8,1.069,0.343,19
8,1,1,0.8,1.147,0.366,20
8,2,1,0.8,0.892,0.34,21
8,2,2,0.9,0.789,0.504,22
8,1,1,0.9,0.916,0.497,23
8,2,2,0.9,0.72,0.381,24
8,1,1,0.8,0.849,0.409,25
8,2,2,0.8,1.116,0.346,26
8,1,1,0.8,1.296,0.336,27
8,1,2,0.8,0.996,0.346,28
8,2,1,0.8,0.872,0.309,29
8,2,1,0.8,0.788,0.351,30
8,1,2,0.8,0.744,0.394,31
8,2,1,0.8,1.55,0.537,32
8,1,1,0.8,1.226,0.253,33
8,2,1,0.8,1.12,0.478,34
8,1,1,0.9,0.757,0.394,35
8,2,2,0.9,0.619,0.47,36
8,2,1,0.8,0.615,0.327,37
8,1,2,0.8,0.899,0.293,38
8,2,1,0.8,0.722,0.335,39
8,1,1,0.8,0.93,0.29,40
8,1,1,0.8,0.728,0.248,41
8,2,2,0.8,0.972,0.196,42
8,1,1,0.8,0.795,0.264,43
8,1,1,0.8,0.63,0.249,44
8,1,1,0.8,0.583,0.21,45
8,2,2,0.8,0.723,0.264,46
8,2,2,0.8,1.017,0.433,47
8,1,1,0.8,0.805,0.229,48
8,2,1,0.8,0.699,0.246,49
8,2,2,0.8,0.86,0.215,50
8,1,1,0.8,0.677,0.21,51
8,2,2,0.8,0.758,0.275,52
8,2,2,0.8,0.634,0.255,53
8,1,2,0.8,2.849,0.506,54
8,1,1,0.8,0.615,0.207,55
8,2,2,0.7,0.571,0.795,56
8,1,1,0.8,0.807,0.487,57
8,1,1,0.9,0.912,0.533,58
8,2,1,0.8,0.767,0.462,59
8,2,1,0.8,0.677,0.282,60
8,2,2,0.8,0.902,0.257,61
8,2,1,0.8,0.767,0.247,62
8,1,1,0.8,0.787,0.254,63
8,2,2,0.8,0.852,0.26,64
8,1,1,0.8,0.861,0.359,65
8,1,1,0.8,0.638,0.347,66
8,1,2,0.8,0.732,0.276,67
8,1,1,0.9,0.605,0.437,68
8,2,2,0.9,0.803,0.401,69
8,1,1,0.9,0.72,0.476,70
8,2,1,0.8,0.811,0.467,71
8,2,2,0.7,0.622,1.009,72
8,2,1,0.8,0.776,0.72,73
8,1,1,0.8,0.897,0.313,74
8,1,1,0.9,0.679,0.3,75
8,2,1,0.9,0.776,0.368,76
8,2,2,0.9,0.86,0.462,77
8,2,2,0.8,1.178,0.589,78
8,1,1,0.9,0.769,0.425,79
8,1,1,0.8,1.381,0.543,80
8,2,2,0.8,1.094,0.43,81
8,1,1,0.9,0.73,0.394,82
8,1,1,0.9,0.72,0.363,83
8,2,1,0.8,0.9,0.503,84
8,1,1,0.8,0.571,0.467,85
8,2,1,0.6,0.873,1.95,86
8,2,2,0.9,0.76,0.382,87
8,1,2,0.8,0.801,0.431,88
8,1,1,0.8,0.893,0.405,89
8,2,2,0.8,1.028,0.295,90
8,1,1,0.8,0.795,0.343,91
8,2,2,0.9,0.958,0.435,92
8,2,2,0.8,1.036,0.386,93
8,1,2,0.8,0.853,0.51,94
8,1,2,0.8,0.945,0.284,95
8,2,1,0.8,0.754,0.376,96
8,1,2,0.8,0.94,0.382,97
8,1,1,0.9,0.924,0.442,98
8,2,1,0.8,0.954,0.424,99
8,1,2,0.8,1.185,0.388,100
8,2,1,0.8,0.845,0.309,101
8,1,1,0.9,0.879,0.413,1
8,2,2,0.8,0.76,0.31,2
8,2,2,0.8,0.956,0.273,3
8,2,2,0.8,0.797,0.339,4
8,1,1,0.9,0.67,0.313,5
8,1,1,0.9,0.943,0.378,6
8,1,1,0.8,0.92,0.373,7
8,2,1,0.8,0.889,0.297,8
8,2,1,0.8,0.856,0.336,9
8,1,1,0.9,0.777,0.577,10
8,2,1,0.8,0.762,0.424,11
8,2,1,0.8,0.907,0.302,12
8,1,1,0.8,1.191,0.266,13
8,1,1,0.8,0.92,0.286,14
8,1,2,0.8,1.116,0.393,15
8,2,2,0.8,0.933,0.277,16
8,2,2,0.8,0.979,0.262,17
8,2,1,0.8,1.026,0.309,18
8,1,1,0.8,0.755,0.369,19
8,1,1,0.8,0.72,0.295,20
8,1,1,0.8,0.792,0.317,21
8,2,2,0.8,0.809,0.281,22
8,2,2,0.8,0.762,0.279,23
8,1,1,0.8,0.79,0.193,24
8,2,2,0.9,0.794,0.311,25
8,1,1,0.8,1.168,0.28,26
8,1,1,0.8,0.74,0.238,27
8,2,2,0.8,0.834,0.295,28
8,1,1,0.8,0.747,0.294,29
8,2,2,0.8,0.72,0.5,30
8,2,1,0.8,0.807,0.32,31
8,2,1,0.8,0.918,0.251,32
8,1,2,0.8,1.068,0.223,33
8,2,2,0.8,0.811,0.227,34
8,1,1,0.8,0.905,0.228,35
8,1,1,0.8,0.802,0.239,36
8,1,1,0.8,0.795,0.192,37
8,2,2,0.8,1.079,0.236,38
8,2,1,0.8,0.88,0.31,39
8,2,2,0.9,0.894,0.423,40
8,1,1,0.9,0.741,0.416,41
8,1,1,0.9,0.79,0.369,42
8,1,1,0.9,0.626,0.293,43
8,1,1,0.9,1.185,0.283,44
8,2,2,0.9,0.698,0.3,45
8,2,1,0.8,0.915,0.4,46
8,2,2,0.9,0.9,0.326,47
8,1,1,0.9,0.72,0.314,48
8,1,1,0.8,0.812,0.419,49
8,2,2,0.9,0.962,0.327,50
8,1,1,0.8,0.64,0.366,51
8,1,1,0.9,0.756,0.377,52
8,2,2,0.9,0.944,0.33,53
8,2,1,0.8,0.72,0.542,54
8,1,2,0.9,1.194,0.447,55
8,2,2,0.8,0.992,0.414,56
8,2,2,0.9,0.735,0.423,57
8,2,1,0.8,1.003,0.424,58
8,1,2,0.8,1.086,0.439,59
8,1,1,0.9,0.848,0.552,60
8,2,1,0.8,1.006,0.494,61
8,1,1,0.8,0.826,0.501,62
8,2,2,0.7,0.939,1.118,63
8,1,1,0.8,0.913,0.479,64
8,1,1,0.8,0.856,0.296,65
8,1,1,0.8,1.055,0.335,66
8,2,2,0.8,0.917,0.274,67
8,2,2,0.8,0.816,0.369,68
8,2,1,0.8,1.021,0.287,69
8,1,1,0.8,0.878,0.355,70
8,2,2,0.8,0.72,0.332,71
8,2,2,0.8,1.093,0.269,72
8,1,1,0.8,0.91,0.353,73
8,1,1,0.8,0.898,0.413,74
8,2,2,0.8,1.23,0.289,75
8,1,1,0.8,0.807,0.255,76
8,2,2,0.8,0.915,0.288,77
8,1,1,0.9,0.947,0.462,78
8,1,2,0.8,1.106,0.413,79
8,1,1,0.9,0.875,0.401,80
8,1,1,0.9,1.031,0.453,81
8,1,1,0.8,1.31,0.609,82
8,2,2,0.9,0.834,0.463,83
8,2,2,0.8,1.171,0.491,84
8,2,2,0.9,0.898,0.413,85
8,2,1,0.8,0.912,0.334,86
8,2,2,0.9,1.089,0.353,87
8,1,2,0.9,1.072,0.325,88
8,2,2,0.8,1.513,0.399,89
8,1,1,0.9,0.971,0.411,90
8,2,2,0.9,1.03,0.489,91
8,1,2,0.8,1.456,0.408,92
8,2,2,0.9,1.113,0.286,93
8,1,1,0.9,0.957,0.394,94
8,1,2,0.8,1.075,0.32,95
8,1,1,0.9,1.004,0.441,96
8,2,1,0.8,1.378,0.325,97
8,1,1,0.8,1.318,0.355,98
8,2,1,0.8,1.338,0.349,99
8,2,2,0.8,1.422,0.273,100
8,2,2,0.8,1.282,0.247,101
8,1,1,0.8,1.063,0.29,1
8,1,2,0.8,0.835,0.305,2
8,2,2,0.8,1.194,0.271,3
8,1,2,0.8,1.051,0.339,4
8,1,1,0.8,0.916,0.362,5
8,1,1,0.8,0.955,0.336,6
8,2,2,0.9,0.908,0.294,7
8,2,2,0.8,0.996,0.227,8
8,2,2,0.9,1.128,0.256,9
8,2,2,0.8,1.087,0.447,10
8,1,1,0.8,0.949,0.4,11
8,2,2,0.9,1.02,0.334,12
8,2,2,0.8,0.909,0.464,13
8,1,1,0.9,1.124,0.337,14
8,1,1,0.8,1.226,0.373,15
8,2,2,0.8,1.102,0.337,16
8,1,2,0.8,0.98,0.295,17
8,1,1,0.8,1.12,0.341,18
8,1,2,0.8,1.012,0.316,19
8,2,2,0.8,1.13,0.251,20
8,2,2,0.8,1.158,0.284,21
