Subj_idx,Stimulus,Response,Confidence,RT_dec,RT_conf,Trial_in_block
1,2,2,0.7,0.679,0.9,1
1,2,1,0.7,0.797,0.658,2
1,1,2,0.7,0.926,0.806,3
1,1,1,0.7,0.661,0.495,4
1,1,2,0.6,0.952,0.966,5
1,2,1,0.6,0.903,0.562,6
1,2,1,0.5,0.72,1.046,7
1,1,1,0.8,0.914,1.015,8
1,1,1,0.8,1.202,0.792,9
1,2,2,0.8,0.919,0.58,10
1,2,1,0.6,0.797,1.579,11
1,2,2,0.6,0.754,0.871,12
1,1,1,0.8,2.171,1.779,13
1,2,2,0.8,0.639,0.868,14
1,1,2,0.7,0.907,1.302,15
1,1,1,0.7,0.938,1.634,16
1,2,1,0.6,0.72,0.745,17
1,1,1,0.5,1.586,1.021,18
1,2,2,0.9,1.264,1.859,19
1,1,1,0.7,1.315,3.92,20
1,1,1,0.7,0.834,0.912,21
1,2,1,0.7,0.929,0.481,22
1,2,1,0.7,0.794,1.264,23
1,1,1,0.7,0.758,1.764,24
1,2,2,0.8,0.951,1.005,25
1,1,1,0.8,1.268,0.799,26
1,2,2,0.8,0.746,0.533,27
1,1,1,0.6,1.006,1.334,28
1,2,2,0.5,2.176,1.32,29
1,1,1,0.8,1.74,0.896,30
1,1,2,0.8,2.166,1.014,31
1,2,2,0.5,1.559,1.021,32
1,2,2,0.9,0.982,2.737,33
1,1,1,0.9,0.947,2.582,34
1,2,1,0.6,0.893,1.365,35
1,2,2,0.6,0.774,0.71,36
1,2,2,0.6,0.695,0.464,37
1,1,1,0.7,0.659,0.501,38
1,1,1,0.5,0.89,1.138,39
1,1,2,0.6,0.651,0.547,40
1,1,1,0.6,0.72,0.913,41
1,2,2,0.6,0.829,0.936,42
1,1,1,0.7,0.791,0.889,43
1,2,2,0.5,0.949,0.968,44
1,2,1,0.5,0.7,1.182,45
1,1,1,0.9,0.917,0.922,46
1,2,2,0.8,0.689,0.969,47
1,1,2,0.6,0.855,0.823,48
1,1,1,0.6,0.676,0.705,49
1,2,2,0.5,0.748,0.535,50
1,1,1,0.8,0.68,1.285,51
1,1,1,0.8,0.766,0.838,52
1,2,2,0.6,0.973,1.189,53
1,2,2,0.5,1.579,0.823,54
1,1,1,0.6,0.81,0.962,55
1,2,2,0.8,1.041,0.854,56
1,2,2,0.7,0.72,1.058,57
1,1,1,0.9,0.55,1.001,58
1,2,1,0.6,0.799,5.077,59
1,2,2,0.7,1.042,0.831,60
1,2,2,0.7,1.355,0.784,61
1,1,1,0.8,0.565,1.244,62
1,1,1,0.7,0.758,0.979,63
1,1,1,0.9,0.922,2.727,64
1,1,1,0.8,0.915,1.169,65
1,1,1,0.6,1.087,0.984,66
1,2,1,0.6,0.692,0.804,67
1,2,2,0.7,0.688,0.92,68
1,1,1,0.7,0.753,1.75,69
1,2,2,0.7,1.074,0.76,70
1,1,1,0.5,0.791,1.481,71
1,2,2,0.6,0.888,1.352,72
1,2,2,0.6,0.78,0.534,73
1,2,2,0.6,0.949,0.456,74
1,2,2,0.5,3.142,1.226,75
1,2,1,0.6,0.92,0.734,76
1,1,1,0.6,0.831,0.653,77
1,1,1,0.9,0.867,1.174,78
1,1,1,0.8,0.756,0.778,79
1,1,1,0.8,0.639,0.717,80
1,2,1,0.6,0.864,1.075,81
1,1,1,0.9,1.042,0.862,82
1,2,2,0.9,0.678,0.659,83
1,1,1,0.9,0.993,0.447,84
1,2,2,0.9,0.72,0.349,85
1,1,1,0.9,1.169,0.489,86
1,1,1,0.9,0.731,0.362,87
1,2,2,0.9,0.758,0.395,88
1,1,1,0.9,0.828,0.327,89
1,2,2,0.9,0.84,0.382,90
1,2,1,0.9,0.636,0.434,91
1,1,1,0.7,0.853,0.973,92
1,1,1,0.7,0.766,0.598,93
1,2,2,0.7,0.885,0.501,94
1,2,2,0.7,0.795,0.417,95
1,1,1,0.7,0.629,0.535,96
1,2,1,0.7,0.795,0.392,97
1,1,1,0.9,0.457,1.177,98
1,2,1,0.8,0.585,0.651,99
1,2,1,0.8,0.838,0.412,100
1,1,2,0.8,0.663,0.306,101
1,2,1,0.7,0.776,1.504,1
1,1,1,0.7,0.828,0.375,2
1,1,1,0.7,1.293,0.517,3
1,1,1,0.7,0.686,0.886,4
1,2,2,0.7,0.89,0.722,5
1,1,1,0.6,0.824,0.307,6
1,2,2,0.5,1.159,0.26,7
1,2,1,0.5,0.667,0.453,8
1,2,2,0.5,0.953,0.678,9
1,1,1,0.6,0.835,0.871,10
1,1,1,0.6,0.641,0.966,11
1,1,1,0.6,0.882,0.935,12
1,1,1,0.7,0.739,0.782,13
1,1,1,0.7,0.737,0.665,14
1,2,1,0.7,0.968,0.456,15
1,1,1,0.7,0.832,0.574,16
1,2,1,0.5,0.674,0.999,17
1,2,1,0.5,0.769,0.385,18
1,2,2,0.5,0.773,0.364,19
1,2,1,0.5,0.744,0.491,20
1,2,1,0.5,0.657,0.649,21
1,2,2,0.5,1.616,0.544,22
1,1,1,0.5,0.72,0.548,23
1,1,1,0.5,1.247,0.367,24
1,1,1,0.6,0.92,1.222,25
1,1,1,0.7,0.551,0.962,26
1,2,1,0.8,0.886,0.654,27
1,1,1,0.6,0.948,0.911,28
1,2,1,0.7,1.406,0.79,29
1,2,1,0.5,1.628,0.623,30
1,1,2,0.5,0.664,0.595,31
1,1,1,0.7,0.733,0.788,32
1,1,1,0.5,1.24,1.43,33
1,2,2,0.5,0.668,0.519,34
1,2,1,0.7,0.906,1.133,35
1,2,1,0.5,1.333,1.055,36
1,2,2,0.5,1.843,0.955,37
1,1,2,0.6,0.919,0.652,38
1,2,2,0.6,0.878,0.643,39
1,1,2,0.6,0.846,0.535,40
1,1,1,0.6,0.864,1.259,41
1,1,1,0.6,0.785,0.604,42
1,2,1,0.6,0.815,0.648,43
1,2,1,0.6,0.875,0.376,44
1,1,1,0.6,0.588,0.447,45
1,1,1,0.6,0.893,0.917,46
1,2,2,0.6,0.878,0.435,47
1,1,1,0.5,0.762,0.543,48
1,2,1,0.8,0.657,1.144,49
1,1,1,0.7,0.777,0.698,50
1,2,1,0.5,0.909,1.272,51
1,1,1,0.5,0.572,0.364,52
1,1,1,0.7,0.762,0.904,53
1,2,1,0.7,0.974,0.83,54
1,2,1,0.7,0.826,0.653,55
1,1,1,0.7,2.596,1.445,56
1,1,1,0.7,0.688,0.552,57
1,2,2,0.7,1.041,0.567,58
1,2,1,0.7,1.655,0.768,59
1,1,1,0.7,0.721,0.55,60
1,1,1,0.6,0.77,0.85,61
1,2,1,0.5,0.782,0.961,62
1,1,1,0.9,0.839,0.941,63
1,2,1,0.7,0.904,0.731,64
1,2,1,0.6,0.746,0.605,65
1,1,1,0.9,0.632,1.046,66
1,2,2,0.8,0.74,0.751,67
1,1,2,0.7,0.6,0.965,68
1,2,1,0.5,0.606,1.072,69
1,2,2,0.5,2.213,0.419,70
1,2,2,0.5,1.223,0.385,71
1,1,2,0.5,1.151,0.365,72
1,2,1,0.8,0.776,0.817,73
1,1,1,0.8,0.78,0.839,74
1,1,1,0.8,0.84,0.693,75
1,2,2,0.8,0.72,0.66,76
1,2,2,0.8,0.805,0.725,77
1,2,2,0.8,1.03,0.969,78
1,1,1,0.8,0.642,0.607,79
1,1,1,0.8,1.008,0.361,80
1,1,1,0.8,0.647,0.455,81
1,1,1,0.8,0.68,0.381,82
1,2,1,0.8,0.734,0.846,83
1,2,2,0.5,2.303,0.488,84
1,1,1,0.8,0.617,0.801,85
1,1,2,0.6,1.378,1.885,86
1,2,2,0.7,0.678,0.876,87
1,2,2,0.6,0.632,1.197,88
1,2,2,0.8,0.7,0.694,89
1,1,2,0.8,0.815,0.511,90
1,1,1,0.7,0.72,0.744,91
1,2,1,0.7,0.945,1.404,92
1,1,1,0.8,1.05,0.651,93
1,2,1,0.8,0.72,0.732,94
1,2,2,0.8,0.653,0.661,95
1,1,1,0.8,0.72,0.825,96
1,1,2,0.5,2.529,0.353,97
1,2,1,0.6,0.956,1.649,98
1,1,1,0.7,1.445,0.638,99
1,2,2,0.7,0.748,0.471,100
1,2,2,0.7,0.955,0.504,101
1,2,1,0.6,0.839,0.885,1
1,1,1,0.6,0.625,0.763,2
1,1,1,0.6,0.625,0.636,3
1,2,1,0.5,0.859,0.469,4
1,1,1,0.5,0.74,0.694,5
1,1,1,0.8,0.656,0.728,6
1,2,1,0.5,3.236,1.506,7
1,2,1,0.7,2.062,0.841,8
1,1,1,0.7,0.866,1.116,9
1,1,1,0.7,0.598,0.723,10
1,2,1,0.5,1.271,0.757,11
1,1,1,0.7,0.632,0.838,12
1,2,1,0.7,2.889,0.467,13
1,1,1,0.7,0.675,1.265,14
1,1,1,0.8,0.738,0.794,15
1,1,1,0.8,0.672,0.606,16
1,2,1,0.8,0.919,0.644,17
1,1,2,0.8,0.787,0.966,18
1,2,2,0.6,0.916,1.257,19
1,1,1,0.8,1.011,0.739,20
1,2,1,0.8,0.644,0.761,21
1,2,1,0.8,0.578,0.717,22
1,1,1,0.8,0.59,0.489,23
1,1,1,0.8,0.599,0.397,24
1,2,1,0.8,0.981,0.352,25
1,1,1,0.6,0.878,1.356,26
1,2,1,0.7,0.645,0.773,27
1,2,1,0.7,0.606,1.382,28
1,2,1,0.7,0.816,0.351,29
1,1,1,0.7,0.808,0.945,30
1,2,1,0.8,0.775,0.847,31
1,1,1,0.8,0.779,1.126,32
1,2,2,0.8,0.72,0.391,33
1,1,1,0.8,1.141,0.48,34
1,2,2,0.8,1.047,0.39,35
1,1,2,0.8,0.976,0.32,36
1,1,1,0.8,0.748,1.518,37
1,2,2,0.8,0.919,0.621,38
1,1,1,0.8,0.694,0.414,39
1,1,1,0.5,0.644,1.09,40
1,2,1,0.7,0.979,1.198,41
1,2,2,0.7,0.783,0.554,42
1,2,2,0.7,0.997,0.339,43
1,1,1,0.7,0.777,0.585,44
1,1,1,0.7,0.73,0.387,45
1,2,2,0.7,0.691,0.403,46
1,2,2,0.7,0.898,0.516,47
1,1,1,0.8,0.803,0.88,48
1,2,1,0.5,1.196,1.37,49
1,1,1,0.8,0.798,0.835,50
1,2,1,0.6,0.641,1.663,51
1,2,2,0.8,0.785,0.883,52
1,1,1,0.8,0.668,1.239,53
1,1,1,0.8,0.555,0.337,54
1,1,1,0.8,0.783,0.521,55
1,2,1,0.8,0.72,0.6,56
1,1,1,0.8,0.86,0.719,57
1,1,1,0.8,0.666,0.429,58
1,2,1,0.8,1.032,0.318,59
1,2,2,0.5,1.604,0.645,60
1,2,1,0.8,0.72,1.283,61
1,1,1,0.5,0.698,1.796,62
1,2,1,0.8,0.894,1.206,63
1,1,1,0.7,0.898,0.893,64
1,1,1,0.7,0.689,1.353,65
1,1,1,0.7,0.72,1.143,66
1,2,1,0.5,1.014,0.902,67
1,2,1,0.5,1.226,0.709,68
1,2,2,0.6,0.772,0.932,69
1,1,1,0.6,0.724,0.546,70
1,2,1,0.5,0.974,0.574,71
1,1,2,0.5,1.729,0.818,72
1,1,1,0.6,0.819,0.741,73
1,2,2,0.7,0.737,0.769,74
1,1,1,0.8,0.765,0.589,75
1,1,1,0.7,0.726,1.006,76
1,2,2,0.7,0.69,0.69,77
1,2,1,0.8,0.581,0.704,78
1,2,2,0.8,1.001,0.847,79
1,1,1,0.8,0.853,0.629,80
1,2,2,0.6,0.817,0.913,81
1,2,1,0.8,0.674,0.976,82
1,1,1,0.8,0.58,1.382,83
1,1,1,0.6,0.906,2.093,84
1,1,1,0.6,0.945,0.956,85
1,2,2,0.6,0.821,1.4,86
1,2,1,0.7,0.884,0.753,87
1,1,1,0.7,0.656,0.416,88
1,1,1,0.7,1.062,0.577,89
1,2,1,0.7,0.941,0.343,90
1,2,2,0.7,0.688,0.36,91
1,1,1,0.8,0.683,1.193,92
1,2,2,0.8,0.875,0.616,93
1,1,1,0.8,0.785,0.564,94
1,1,1,0.8,0.727,0.423,95
1,2,2,0.8,0.72,0.478,96
1,2,1,0.8,0.548,0.423,97
1,1,1,0.6,0.999,1.085,98
1,2,2,0.6,0.654,0.374,99
1,1,1,0.8,1.02,0.776,100
1,2,1,0.8,0.563,0.353,101
1,1,1,0.7,0.816,0.76,1
1,2,2,0.7,0.687,0.406,2
1,1,2,0.7,0.621,0.383,3
1,2,2,0.5,0.683,0.833,4
1,2,1,0.8,0.604,1.073,5
1,1,1,0.8,0.571,0.899,6
1,1,1,0.8,0.72,0.351,7
1,1,1,0.8,0.72,0.397,8
1,2,1,0.5,0.795,0.985,9
1,2,2,0.7,0.764,0.789,10
1,1,1,0.7,0.667,0.39,11
1,2,1,0.6,0.78,1.047,12
1,1,1,0.6,0.877,0.467,13
1,2,2,0.6,0.411,0.588,14
1,1,1,0.6,0.538,0.268,15
1,2,1,0.7,0.92,1.021,16
1,1,1,0.7,0.761,0.566,17
1,1,1,0.7,0.68,0.333,18
1,2,1,0.7,0.694,0.966,19
1,1,1,0.7,0.759,0.38,20
1,2,1,0.6,0.926,1.053,21
1,2,1,0.6,0.543,0.721,22
1,1,1,0.6,0.914,0.936,23
1,2,2,0.8,1.118,0.844,24
1,1,1,0.8,1.042,0.647,25
1,1,1,0.8,0.614,0.958,26
1,1,1,0.7,0.753,0.752,27
1,1,1,0.7,0.59,1.048,28
1,1,1,0.7,0.858,0.953,29
1,2,1,0.7,0.649,1.368,30
1,2,1,0.5,0.7,0.943,31
1,2,2,0.6,0.667,0.837,32
1,2,2,0.6,0.727,0.374,33
1,2,1,0.7,0.594,0.647,34
1,1,1,0.7,0.683,0.552,35
1,2,1,0.7,0.551,0.369,36
1,1,1,0.5,1.234,0.616,37
1,1,1,0.7,0.761,1.158,38
1,1,2,0.5,1.029,0.68,39
1,2,1,0.8,0.855,0.951,40
1,2,2,0.7,0.989,1.024,41
1,2,1,0.5,0.59,0.857,42
1,2,1,0.5,0.552,0.573,43
1,2,2,0.5,1.056,0.409,44
1,1,1,0.5,0.839,0.82,45
1,1,1,0.5,0.739,0.469,46
1,1,1,0.7,1.007,0.847,47
1,2,2,0.5,0.795,0.752,48
1,1,1,0.6,0.963,0.761,49
1,2,1,0.8,0.744,0.971,50
1,1,1,0.6,0.74,1.534,51
1,2,2,0.5,0.951,1.045,52
1,2,2,0.6,0.771,0.955,53
1,1,1,0.5,0.722,1.695,54
1,1,1,0.6,1.289,0.69,55
1,1,1,0.6,0.739,0.381,56
1,2,2,0.6,0.72,0.334,57
1,1,2,0.5,0.959,1.1,58
1,2,1,0.6,0.744,0.699,59
1,1,1,0.6,0.553,0.391,60
1,2,1,0.5,1.744,0.251,61
1,1,1,0.6,0.63,0.889,62
1,1,1,0.7,0.756,1.258,63
1,2,1,0.7,0.747,0.758,64
1,2,1,0.7,1.007,0.719,65
1,2,1,0.7,0.929,1.112,66
1,1,1,0.7,0.738,0.674,67
1,1,1,0.9,0.72,1.52,68
1,2,1,0.5,1.015,0.399,69
1,1,1,0.6,1.411,1.243,70
1,1,1,0.9,0.932,1.365,71
1,2,1,0.5,0.932,0.755,72
1,2,1,0.6,1.618,1.053,73
1,2,1,0.6,0.939,0.646,74
1,1,1,0.6,1.018,0.714,75
1,2,2,0.6,0.643,0.425,76
1,2,2,0.6,0.588,0.359,77
1,1,1,0.6,0.826,0.413,78
1,1,2,0.5,2.133,0.414,79
1,2,2,0.6,0.866,0.396,80
1,1,1,0.8,0.939,0.702,81
1,2,2,0.8,0.727,0.951,82
1,2,1,0.8,0.851,0.403,83
1,1,2,0.5,0.633,1.238,84
1,1,1,0.8,0.634,0.928,85
1,2,1,0.9,0.699,0.783,86
1,1,1,0.9,0.629,0.551,87
1,1,1,0.9,0.745,0.371,88
1,2,2,0.6,1.492,1.021,89
1,1,1,0.9,0.654,0.767,90
1,2,1,1,0.772,3.029,91
1,2,1,1,0.657,0.657,92
1,1,1,1,0.727,0.784,93
1,2,2,0.7,0.726,1.31,94
1,1,1,1,0.674,0.919,95
1,1,1,1,0.627,0.349,96
1,2,1,1,0.655,1.47,97
1,1,1,1,0.584,0.331,98
1,1,1,0.9,0.958,1.339,99
1,1,2,0.6,0.741,0.928,100
1,2,2,0.7,0.928,0.808,1
1,2,1,0.7,0.625,0.34,2
1,2,2,0.7,0.762,0.791,3
1,1,1,0.7,0.723,0.384,4
1,2,1,0.5,0.625,0.9,5
1,1,2,0.5,0.69,0.763,6
1,1,1,0.8,0.513,0.894,7
1,2,1,0.8,0.653,1.173,8
1,1,1,0.8,0.729,0.489,9
1,2,1,0.5,1.413,0.413,10
1,1,1,0.7,0.947,0.678,11
1,2,1,0.7,0.585,0.956,12
1,2,2,0.7,0.602,0.472,13
1,2,2,0.7,0.742,0.537,14
1,2,2,0.7,0.62,0.504,15
1,2,2,0.7,0.758,0.507,16
1,1,1,0.7,0.737,0.434,17
1,1,1,0.8,0.526,0.693,18
1,2,2,0.5,1.265,0.564,19
1,1,1,0.5,0.578,0.269,20
1,1,1,0.5,0.792,0.462,21
1,1,1,0.5,0.532,0.196,22
1,2,2,0.6,0.829,0.728,23
1,2,1,0.5,0.889,0.849,24
1,1,1,0.9,0.647,0.76,25
1,2,2,0.9,0.622,0.552,26
1,1,1,0.7,0.729,0.994,27
1,1,1,0.9,0.563,0.944,28
1,2,1,0.9,0.526,0.335,29
1,1,1,0.9,0.666,0.629,30
1,2,1,0.5,1.003,4.824,31
1,2,2,0.5,1.499,0.726,32
1,1,1,0.6,0.631,1.148,33
1,1,1,0.6,0.728,0.697,34
1,2,1,0.5,0.639,0.828,35
1,2,2,0.6,0.789,0.912,36
1,1,1,0.6,1.225,0.972,37
1,1,1,0.6,1.069,0.776,38
1,1,1,0.6,0.631,1.25,39
1,1,1,0.5,1.755,0.681,40
1,2,2,0.5,1.159,0.309,41
1,2,2,0.7,0.728,1.032,42
1,2,2,0.7,0.72,0.591,43
1,2,2,0.7,0.875,0.696,44
1,1,1,0.7,0.758,0.748,45
1,2,2,0.6,0.786,1.453,46
1,2,1,0.6,0.72,0.916,47
1,1,1,0.5,0.883,1.224,48
1,1,1,0.8,0.847,0.934,49
1,2,2,0.6,1.2,0.67,50
1,1,1,0.6,0.58,0.711,51
1,2,1,0.6,0.698,0.228,52
1,1,1,0.8,0.851,0.659,53
1,2,1,0.7,0.82,0.799,54
1,2,1,0.7,0.736,1.104,55
1,1,1,0.7,0.569,0.657,56
1,2,2,0.7,1.242,0.696,57
1,1,1,0.9,0.638,0.66,58
1,1,1,0.8,0.799,0.78,59
1,1,1,0.8,0.758,0.435,60
1,2,1,0.8,0.559,0.46,61
1,2,1,0.6,0.738,0.973,62
1,1,1,0.6,0.774,0.814,63
1,1,1,0.7,0.871,0.858,64
1,2,2,0.5,0.88,0.661,65
1,1,1,0.7,0.593,0.75,66
1,1,1,0.5,1.015,0.608,67
1,2,1,0.5,0.566,0.47,68
1,2,1,0.5,0.815,0.343,69
1,2,2,0.5,0.944,0.355,70
1,1,1,0.5,0.591,0.385,71
1,1,1,0.5,0.508,0.335,72
1,2,2,0.5,0.835,0.577,73
1,1,1,0.5,0.72,0.572,74
1,2,1,0.5,0.899,0.565,75
1,1,1,0.5,0.699,0.374,76
1,2,1,0.5,1.148,0.671,77
1,1,1,0.5,1.08,0.566,78
1,2,1,0.7,0.585,1.148,79
1,1,1,0.7,0.608,0.68,80
1,1,1,0.7,0.593,0.286,81
1,2,1,0.7,0.535,0.263,82
1,2,1,0.6,0.856,0.936,83
1,2,2,0.6,2.18,0.407,84
1,1,1,0.6,0.856,0.608,85
1,2,1,0.5,0.476,0.825,86
1,1,1,0.5,0.619,0.294,87
1,2,1,0.5,0.838,0.372,88
1,2,1,0.5,0.522,0.335,89
1,1,1,0.7,0.72,0.696,90
1,2,2,0.7,0.993,0.543,91
1,1,1,0.6,0.778,0.981,92
1,1,1,0.7,0.72,0.897,93
1,1,1,0.7,0.535,0.28,94
1,2,1,0.7,0.547,0.766,95
1,1,2,0.6,0.698,0.781,96
1,1,1,0.9,0.677,0.971,97
1,2,2,0.9,0.884,0.297,98
1,2,2,0.6,0.85,1.395,99
1,2,1,0.7,0.738,1.265,100
1,1,2,0.6,1.315,0.736,101
1,1,1,0.6,0.668,0.231,102
1,1,1,0.6,0.84,0.981,103
1,2,1,0.8,0.887,1.047,104
1,2,2,0.8,0.733,0.317,105
1,2,2,0.8,0.644,0.401,106
1,1,1,0.7,0.898,0.397,107
1,1,1,0.7,0.456,0.24,108
1,2,1,0.7,1.14,0.295,109
2,2,2,0.7,1.032,0.582,1
2,2,2,0.7,0.733,0.444,2
2,2,2,0.8,0.595,0.448,3
2,1,1,0.7,0.729,0.465,4
2,1,1,0.7,0.698,0.461,5
2,2,2,0.8,0.649,0.377,6
2,1,1,0.5,2.159,0.389,7
2,1,2,0.6,0.72,0.382,8
2,2,2,0.8,0.689,0.441,9
2,1,1,0.8,0.733,0.462,10
2,1,1,0.8,0.897,0.489,11
2,1,1,0.8,0.972,0.485,12
2,2,2,0.8,0.72,0.385,13
2,1,1,0.9,0.623,0.577,14
2,2,2,0.8,0.797,0.643,15
2,2,2,0.5,0.969,0.338,16
2,2,2,0.5,0.781,0.44,17
2,2,2,0.5,0.83,0.369,18
2,1,1,0.6,1.06,0.993,19
2,1,1,0.8,0.696,0.385,20
2,2,2,0.9,0.983,1.194,21
2,1,1,0.9,0.974,0.39,22
2,1,1,0.9,0.839,0.492,23
2,2,2,0.9,0.624,0.554,24
2,2,2,0.9,1.07,0.729,25
2,2,2,0.9,0.616,0.512,26
2,2,2,0.9,0.737,1.425,27
2,1,1,0.9,0.733,0.637,28
2,2,2,0.9,1.011,0.972,29
2,1,1,1,0.789,0.639,30
2,1,1,0.9,0.747,2.006,31
2,1,1,0.8,1.021,1.48,32
2,1,2,0.9,0.761,0.999,33
2,2,2,0.9,0.917,0.538,34
2,2,2,0.9,0.641,0.846,35
2,1,1,0.9,2.889,0.542,36
2,2,2,0.7,2.943,3.872,37
2,1,2,0.6,0.72,1.226,38
2,2,2,0.8,0.693,0.854,39
2,1,1,0.6,0.983,0.642,40
2,1,1,1,0.768,1.088,41
2,2,2,0.8,1.341,1.039,42
2,2,2,0.9,0.693,0.638,43
2,1,1,0.9,0.647,0.567,44
2,2,2,0.9,0.965,0.357,45
2,2,2,1,0.72,0.958,46
2,1,1,0.9,0.741,0.392,47
2,1,1,0.9,0.686,0.43,48
2,2,2,0.5,0.924,0.357,49
2,1,1,0.5,0.256,0.368,50
2,1,1,0.8,2.596,0.33,51
2,1,1,0.9,0.621,0.496,52
2,2,2,0.6,1.465,0.996,53
2,2,2,0.6,0.741,0.408,54
2,1,1,0.8,0.591,0.427,55
2,2,2,0.9,0.738,0.341,56
2,1,1,0.9,0.781,0.336,57
2,1,1,0.9,1.204,0.505,58
2,2,2,0.7,0.885,0.493,59
2,2,2,0.6,0.654,0.398,60
2,2,2,0.7,0.602,0.375,61
2,1,1,0.8,0.67,0.736,62
2,1,2,0.8,0.724,0.452,63
2,2,2,0.9,0.597,1.179,64
2,2,2,0.9,0.641,1.559,65
2,2,2,0.7,0.688,1.152,66
2,1,1,0.9,1.004,1.434,67
2,2,2,0.9,0.93,0.499,68
2,2,1,0.7,0.825,0.924,69
2,1,1,0.9,0.698,0.685,70
2,1,1,0.9,1.032,0.43,71
2,1,2,0.9,0.767,0.472,72
2,1,1,1,0.728,0.672,73
2,2,2,1,0.72,0.716,74
2,1,1,0.9,0.941,0.544,75
2,2,2,0.9,0.894,0.598,76
2,1,1,0.9,0.871,0.517,77
2,2,2,0.9,0.723,0.44,78
2,1,1,0.9,0.943,0.57,79
2,2,1,0.7,0.75,0.408,80
2,1,1,0.7,1.012,1.036,81
2,2,2,0.8,0.693,0.909,82
2,2,2,0.7,0.628,0.607,83
2,1,1,0.9,0.842,1.112,84
2,1,1,0.9,1.25,0.697,85
2,1,1,0.9,0.64,0.469,86
2,2,2,0.9,0.83,0.593,87
2,2,2,0.9,0.794,0.456,88
2,1,1,1,0.72,0.657,89
2,1,1,1,0.775,0.631,90
2,2,1,0.7,0.731,0.715,91
2,2,2,0.9,0.735,0.815,92
2,2,2,0.8,0.776,1.072,93
2,1,1,0.8,1.314,0.199,94
2,1,1,0.6,1.352,0.493,95
2,2,2,0.8,1.158,0.532,96
2,1,1,0.9,0.546,0.469,97
2,2,2,0.9,0.76,0.318,98
2,2,2,0.9,0.951,0.332,99
2,2,2,0.9,0.805,0.27,100
2,1,2,0.6,0.627,0.414,101
2,2,2,0.7,0.72,0.81,1
2,1,1,0.7,0.587,0.382,2
2,1,1,0.7,0.786,0.5,3
2,2,1,0.5,0.568,0.936,4
2,2,2,0.8,1.345,0.701,5
2,1,1,0.6,0.786,0.515,6
2,1,1,0.6,0.649,0.393,7
2,1,1,0.7,1.301,0.52,8
2,1,1,0.8,0.633,0.478,9
2,2,2,0.8,0.72,0.482,10
2,2,2,0.8,0.781,0.464,11
2,2,2,0.8,0.636,0.401,12
2,2,2,0.8,1.373,0.429,13
2,1,1,0.8,0.724,0.521,14
2,1,1,0.8,0.786,0.357,15
2,2,2,0.8,0.886,0.486,16
2,2,2,0.5,1.109,0.327,17
2,1,1,0.6,0.585,0.731,18
2,1,1,0.9,0.668,0.775,19
2,2,1,0.7,0.981,1.048,20
2,1,1,1,0.7,0.67,21
2,2,1,1,0.994,0.792,22
2,2,2,0.9,0.755,0.617,23
2,1,1,0.9,0.693,0.957,24
2,1,1,1,0.774,1.022,25
2,1,1,1,0.821,0.776,26
2,2,2,1,0.814,0.646,27
2,2,2,1,0.922,0.935,28
2,1,1,0.9,0.91,0.769,29
2,2,2,0.9,0.666,1.212,30
2,1,1,1,0.665,0.707,31
2,1,1,1,0.604,0.642,32
2,1,1,1,0.936,0.576,33
2,2,1,0.8,0.868,0.871,34
2,2,2,0.9,0.733,0.589,35
2,1,1,0.9,0.83,0.409,36
2,2,2,0.8,2.903,0.395,37
2,1,1,0.7,1.545,0.876,38
2,2,2,0.7,0.688,1.176,39
2,2,2,0.7,0.78,0.623,40
2,1,1,0.9,0.68,0.677,41
2,2,2,0.9,0.799,0.532,42
2,1,1,0.8,0.72,0.677,43
2,1,1,0.7,0.651,0.539,44
2,1,1,0.9,1.428,0.527,45
2,1,1,0.9,1.296,0.425,46
2,2,2,0.9,1.34,0.415,47
2,2,1,0.9,1.006,0.525,48
2,2,2,0.8,1.102,0.593,49
2,2,2,0.9,1.285,0.542,50
2,1,1,0.9,0.876,0.473,51
2,1,1,0.9,0.541,0.527,52
2,1,1,1,0.659,0.518,53
2,2,2,0.9,0.692,0.452,54
2,1,2,0.6,1.016,0.552,55
2,2,2,0.6,0.649,0.537,56
2,2,2,0.5,1.208,0.422,57
2,1,1,0.7,0.566,0.798,58
2,2,2,0.7,0.679,0.365,59
2,2,2,0.7,0.598,0.219,60
2,1,1,0.8,0.662,0.415,61
2,2,2,0.8,0.738,0.485,62
2,2,2,0.8,0.678,1.179,63
2,2,2,0.8,0.615,0.303,64
2,1,1,0.8,0.603,0.328,65
2,1,1,0.8,0.988,0.311,66
2,1,2,0.8,0.882,0.488,67
2,1,1,0.8,0.809,0.409,68
2,1,1,0.8,0.647,0.479,69
2,2,2,0.8,0.774,0.302,70
2,2,1,0.8,0.879,0.436,71
2,1,1,0.8,0.96,0.373,72
2,2,2,0.7,0.657,0.585,73
2,1,1,0.8,1.071,1.061,74
2,2,2,0.8,0.759,0.236,75
2,1,1,0.8,1.029,0.255,76
2,2,2,0.8,0.72,0.307,77
2,2,1,0.7,0.644,0.618,78
2,2,2,0.5,0.755,1.008,79
2,1,2,0.5,1.203,0.756,80
2,1,1,0.7,0.896,0.544,81
2,2,1,0.6,0.678,0.66,82
2,1,1,0.8,0.69,1.018,83
2,1,1,0.7,0.937,0.577,84
2,1,1,0.7,1.383,0.362,85
2,1,1,0.8,0.608,0.584,86
2,1,1,0.8,0.644,0.242,87
2,2,2,0.6,0.728,0.328,88
2,2,2,0.8,0.825,0.308,89
2,2,2,0.8,0.72,0.21,90
2,2,2,0.8,0.817,0.329,91
2,1,2,0.5,0.738,0.9,92
2,2,2,0.5,0.877,0.331,93
2,2,2,0.8,0.759,0.476,94
2,1,1,0.6,1.048,0.424,95
2,1,2,0.5,1.047,0.726,96
2,2,2,0.8,1.079,0.453,97
2,2,2,0.8,0.79,0.513,98
2,1,1,0.8,1.101,0.504,99
2,1,1,0.6,1.243,0.337,100
2,2,2,0.7,0.666,0.564,101
2,1,1,0.6,0.688,0.768,1
2,2,1,0.6,0.946,0.453,2
2,2,1,0.6,1.742,0.689,3
2,1,1,0.8,0.751,0.645,4
2,2,2,0.5,0.683,0.753,5
2,1,1,0.7,0.594,0.567,6
2,2,1,0.7,0.763,0.824,7
2,1,1,0.9,0.641,0.735,8
2,1,1,0.8,1.224,0.899,9
2,1,1,0.8,0.89,0.489,10
2,2,2,0.9,0.72,0.614,11
2,2,2,0.9,1.121,0.519,12
2,1,1,0.9,0.604,1.028,13
2,2,1,0.9,0.825,0.787,14
2,2,2,0.9,0.636,0.922,15
2,2,2,0.9,0.665,1.539,16
2,1,1,0.8,1.463,0.762,17
2,1,1,0.9,0.867,0.454,18
2,2,2,0.9,1.018,0.509,19
2,1,1,0.9,0.528,0.792,20
2,2,1,0.8,0.593,0.543,21
2,1,1,1,0.754,1.152,22
2,1,1,0.9,0.569,0.641,23
2,2,2,0.9,0.96,0.59,24
2,2,2,0.8,0.812,2.443,25
2,2,2,0.8,0.84,1.141,26
2,1,1,0.9,0.654,0.703,27
2,1,1,0.6,0.954,0.64,28
2,2,2,0.5,0.614,0.623,29
2,1,1,0.6,0.736,0.495,30
2,2,1,0.6,0.814,0.422,31
2,1,1,0.5,0.682,0.383,32
2,2,1,0.5,1.253,0.453,33
2,1,1,0.8,0.655,0.455,34
2,2,2,0.5,0.778,0.365,35
2,2,1,0.5,0.686,0.334,36
2,1,1,0.8,0.658,0.37,37
2,1,1,0.9,0.808,0.352,38
2,2,2,0.9,0.918,0.388,39
2,1,1,0.9,0.525,0.285,40
2,1,1,0.5,1.171,0.499,41
2,2,1,0.5,1.607,0.295,42
2,2,2,0.6,0.731,0.803,43
2,1,1,0.8,0.609,0.482,44
2,1,1,0.9,0.685,0.422,45
2,2,2,0.9,0.609,0.441,46
2,1,1,0.9,0.72,1.13,47
2,1,1,0.9,0.628,0.87,48
2,1,1,0.9,1.141,0.295,49
2,1,1,0.9,0.576,0.448,50
2,2,1,0.9,0.721,1.19,51
2,2,2,0.9,0.731,0.483,52
2,2,1,0.9,0.876,0.465,53
2,2,1,0.9,1.253,0.533,54
2,2,2,0.8,0.958,0.611,55
2,2,2,0.9,0.618,0.509,56
2,1,2,0.8,0.646,0.47,57
2,1,1,0.9,0.588,0.487,58
2,1,1,0.9,0.784,0.451,59
2,2,2,0.7,2.253,0.791,60
2,2,1,0.6,0.622,0.864,61
2,1,1,0.8,0.604,0.596,62
2,2,1,0.6,0.965,0.885,63
2,1,1,0.8,0.612,0.915,64
2,1,1,0.8,0.559,0.517,65
2,2,2,0.8,0.675,0.44,66
2,1,1,0.6,0.813,0.572,67
2,2,1,0.5,0.733,1.029,68
2,1,1,0.8,0.817,0.721,69
2,2,2,0.8,0.592,0.429,70
2,2,2,0.7,0.753,0.998,71
2,1,1,0.8,0.823,0.658,72
2,2,2,0.8,0.726,0.511,73
2,1,1,0.8,0.629,0.855,74
2,1,1,0.8,0.573,0.581,75
2,2,2,0.7,0.753,1.318,76
2,1,1,0.8,0.589,0.352,77
2,2,1,0.8,0.601,0.462,78
2,1,1,0.8,0.941,1,79
2,2,2,0.8,0.609,0.801,80
2,1,1,0.8,1,0.573,81
2,1,1,0.8,1.068,0.327,82
2,2,2,0.8,0.783,0.338,83
2,2,1,0.7,0.627,0.878,84
2,2,1,0.5,1.236,0.442,85
2,1,1,0.5,1.032,0.382,86
2,2,1,0.5,2.783,0.304,87
2,1,1,0.8,1.146,0.342,88
2,1,1,0.8,0.967,0.303,89
2,2,2,0.8,0.786,0.301,90
2,2,2,0.9,0.742,0.265,91
2,1,1,0.7,0.585,0.525,92
2,1,1,0.9,0.699,0.365,93
2,2,2,0.9,0.612,0.244,94
2,2,1,0.7,0.552,0.717,95
2,1,1,0.9,0.849,0.441,96
2,1,2,0.9,0.745,0.42,97
2,2,2,0.9,0.638,0.251,98
2,2,2,0.9,0.91,0.265,99
2,2,2,0.9,0.81,0.33,100
2,1,1,0.8,0.526,0.27,101
2,1,1,0.6,0.86,0.487,1
2,1,1,0.7,0.576,0.384,2
2,1,1,0.8,0.684,0.38,3
2,2,1,0.5,1.92,0.485,4
2,2,2,0.7,0.537,0.372,5
2,2,2,0.7,0.554,0.391,6
2,1,2,0.7,1.04,0.477,7
2,2,2,0.7,0.62,0.463,8
2,1,2,0.5,0.635,0.832,9
2,1,1,0.8,1.222,0.353,10
2,2,2,0.9,1.108,0.448,11
2,1,1,0.5,1.486,0.19,12
2,2,2,0.9,1.532,0.261,13
2,2,2,0.6,0.72,0.47,14
2,1,1,0.6,0.546,0.372,15
2,2,2,0.8,0.541,0.28,16
2,1,1,0.9,0.739,0.374,17
2,1,1,0.8,0.627,0.279,18
2,2,2,0.9,0.499,0.358,19
2,2,2,0.8,0.753,0.326,20
2,2,1,0.8,0.642,0.303,21
2,1,1,0.8,0.526,0.429,22
2,2,1,0.7,0.655,0.431,23
2,1,1,0.7,1.643,0.664,24
2,1,1,0.9,0.678,0.292,25
2,2,2,0.9,0.685,0.237,26
2,1,1,0.9,0.566,0.302,27
2,2,1,0.9,0.551,0.329,28
2,2,1,0.9,0.826,0.445,29
2,1,1,0.9,0.663,0.361,30
2,1,1,0.9,0.732,0.372,31
2,2,1,0.9,0.574,0.382,32
2,1,1,0.9,0.503,0.378,33
2,1,1,1,0.61,0.651,34
2,1,1,0.9,0.929,0.361,35
2,2,2,0.9,0.789,0.671,36
2,1,1,0.9,0.809,0.529,37
2,2,2,0.9,0.666,0.516,38
2,2,2,0.9,0.568,0.528,39
2,1,1,0.9,0.846,0.463,40
2,2,2,0.9,0.618,0.389,41
2,2,2,1,1.201,0.686,42
2,2,1,1,0.61,0.386,43
2,2,2,0.8,0.675,0.529,44
2,2,1,0.5,0.623,0.689,45
2,1,1,0.8,0.816,1.096,46
2,1,1,0.8,0.647,0.439,47
2,1,1,0.9,0.72,0.811,48
2,1,2,0.9,1.163,1.161,49
2,1,1,0.8,0.624,0.754,50
2,2,1,0.8,0.641,0.502,51
2,2,1,0.8,0.592,0.524,52
2,1,1,0.7,0.942,1.256,53
2,2,1,0.7,0.556,0.458,54
2,1,1,0.6,0.6,0.789,55
2,1,1,0.6,3.729,0.52,56
2,2,2,0.6,0.899,0.646,57
2,1,1,0.6,0.578,0.437,58
2,1,1,0.8,0.656,0.432,59
2,2,2,0.8,0.815,0.383,60
2,1,1,0.8,0.531,0.291,61
2,2,2,0.8,0.628,0.262,62
2,2,2,0.9,0.72,2.349,63
2,1,1,0.8,0.609,0.176,64
2,2,1,0.8,0.973,0.229,65
2,1,2,0.8,0.64,0.189,66
2,2,1,0.5,0.961,0.455,67
2,1,1,0.6,0.61,0.674,68
2,2,1,0.5,0.662,0.305,69
2,2,2,0.7,0.634,0.695,70
2,1,1,0.8,0.544,0.435,71
2,1,1,0.9,0.74,0.719,72
2,2,2,0.9,0.728,0.385,73
2,2,2,0.9,0.649,0.841,74
2,2,2,0.9,0.578,0.482,75
2,2,1,0.6,2.357,0.542,76
2,1,1,0.9,0.736,0.447,77
2,1,1,0.9,0.535,0.422,78
2,2,2,0.9,0.69,0.378,79
2,1,1,0.9,0.685,0.315,80
2,1,1,0.9,0.572,0.348,81
2,1,1,0.7,0.68,0.365,82
2,1,1,0.9,0.846,0.358,83
2,1,1,1,0.57,0.409,84
2,2,2,0.6,1.101,0.416,85
2,2,1,0.9,0.545,0.636,86
2,1,1,0.8,0.781,0.432,87
2,2,2,0.9,0.721,0.758,88
2,2,2,0.9,0.668,0.207,89
2,1,1,0.7,0.637,0.427,90
2,1,1,0.6,2.623,0.336,91
2,2,1,0.8,0.603,0.448,92
2,1,1,0.5,0.844,0.385,93
2,2,2,0.8,0.677,0.226,94
2,2,2,0.8,0.598,0.275,95
2,1,1,0.6,0.553,0.439,96
2,2,2,0.8,0.741,0.296,97
2,2,2,0.7,0.615,0.734,98
2,1,2,0.7,0.594,0.384,99
2,1,2,0.5,0.677,0.915,100
2,2,2,0.6,0.882,0.264,1
2,1,1,0.7,0.686,0.398,2
2,1,1,0.7,0.676,0.851,3
2,2,2,0.8,0.513,0.726,4
2,2,2,0.8,0.548,0.311,5
2,1,1,0.8,0.623,0.274,6
2,1,2,0.8,0.657,0.673,7
2,2,1,0.6,0.517,1.002,8
2,2,2,0.8,0.563,0.272,9
2,1,1,0.5,1.185,0.38,10
2,1,1,0.8,0.56,0.397,11
2,2,2,0.8,0.587,0.254,12
2,2,2,0.7,0.605,0.521,13
2,1,1,0.5,0.72,0.499,14
2,1,2,0.5,0.332,0.396,15
2,2,1,0.5,0.72,0.245,16
2,1,1,1,2.152,0.262,17
2,2,1,0.8,0.761,0.647,18
2,2,1,0.6,0.96,0.461,19
2,1,1,0.5,0.521,0.303,20
2,2,2,0.9,0.946,0.421,21
2,2,2,0.8,0.798,0.435,22
2,1,1,0.9,0.633,0.327,23
2,2,2,0.9,0.59,0.312,24
2,1,2,0.9,1.062,0.745,25
2,2,2,0.6,0.669,0.287,26
2,1,1,0.8,0.576,0.465,27
2,1,1,0.9,0.676,0.993,28
2,2,2,1,0.794,0.736,29
2,2,2,1,0.623,0.377,30
2,2,2,1,1.701,0.344,31
2,2,1,0.8,0.571,1.083,32
2,1,1,1,0.876,0.762,33
2,2,2,1,0.667,0.997,34
2,1,1,1,0.604,0.953,35
2,1,1,1,0.659,0.733,36
2,1,1,0.9,0.852,0.868,37
2,2,2,0.9,0.581,0.584,38
2,1,1,0.8,0.675,0.745,39
2,1,1,1,0.581,0.591,40
2,2,2,1,0.561,1.702,41
2,2,2,1,0.786,0.397,42
2,2,1,0.9,0.664,0.979,43
2,1,2,0.6,0.583,0.682,44
2,1,1,0.9,0.643,0.6,45
2,1,1,0.9,0.636,0.473,46
2,2,2,0.9,0.6,1.021,47
2,1,1,0.8,1.881,0.494,48
2,2,2,0.8,1.507,0.461,49
2,1,1,0.7,0.687,0.438,50
2,1,1,0.7,0.72,1.602,51
2,2,2,0.8,0.668,0.591,52
2,2,2,0.9,0.603,0.367,53
2,1,1,0.6,0.657,1.152,54
2,1,1,0.8,0.855,0.559,55
2,1,1,0.6,1.912,0.614,56
2,2,2,0.8,0.545,0.356,57
2,2,2,0.8,0.618,0.445,58
2,2,2,0.6,0.619,0.334,59
2,1,2,0.8,0.618,0.244,60
2,2,2,0.8,0.549,0.224,61
2,1,1,0.8,0.673,0.303,62
2,1,1,0.8,0.517,0.498,63
2,2,1,0.8,0.835,0.353,64
2,1,1,0.9,0.455,0.399,65
2,2,2,0.8,0.55,0.36,66
2,1,1,0.8,0.465,0.26,67
2,2,2,0.8,0.517,0.819,68
2,2,2,0.8,0.628,0.151,69
2,1,2,0.8,0.623,0.314,70
2,1,1,0.9,0.755,0.392,71
2,1,1,0.9,1.049,0.401,72
2,2,1,0.6,0.72,0.701,73
2,2,2,0.9,0.977,0.713,74
2,1,1,0.9,0.573,1.1,75
2,2,2,0.9,0.622,0.816,76
2,2,2,0.6,0.522,1.039,77
2,2,2,0.8,0.571,0.963,78
2,2,2,0.7,0.724,0.737,79
2,2,2,0.9,0.574,0.702,80
2,1,1,0.9,0.748,0.599,81
2,1,1,1,0.677,0.714,82
2,2,2,0.9,0.83,0.601,83
2,1,1,0.9,0.487,1.359,84
2,1,1,0.9,0.582,1.136,85
2,1,1,0.9,0.612,0.62,86
2,2,1,0.9,1.72,0.454,87
2,1,1,0.9,1.052,0.508,88
2,1,1,1,0.819,0.837,89
2,2,2,0.9,0.754,0.582,90
2,2,2,0.9,0.811,0.315,91
2,1,1,0.8,0.614,0.286,92
2,2,2,0.9,0.791,0.22,93
2,2,2,0.9,0.576,0.224,94
2,2,1,0.9,0.815,0.287,95
2,1,1,0.9,0.597,0.226,96
2,2,2,0.9,0.664,0.187,97
2,2,2,0.9,0.839,0.236,98
2,1,1,0.9,0.573,0.253,99
2,1,1,0.9,0.483,0.217,100
2,1,1,0.9,0.72,0.265,101
2,1,1,0.9,0.727,0.191,102
2,2,2,1,0.83,0.769,103
2,2,2,0.9,0.85,0.634,104
2,1,2,0.9,0.531,0.307,105
2,1,1,0.9,0.737,0.354,106
2,1,1,0.9,0.631,0.525,107
2,2,2,0.9,0.633,0.414,108
2,2,1,0.9,0.613,0.317,109
3,1,2,1,0.581,0.759,1
3,1,1,1,0.859,0.166,2
3,2,2,1,0.596,0.442,3
3,1,2,1,0.739,0.198,4
3,1,1,1,0.836,0.177,5
3,2,2,0.5,0.64,1.213,6
3,2,1,0.5,2.503,0.215,7
3,2,1,1,0.616,0.184,8
3,1,1,1,1.899,0.158,9
3,2,1,1,0.634,0.151,10
3,1,1,1,1.184,0.187,11
3,2,1,1,0.788,0.183,12
3,1,2,0.5,1.013,1.133,13
3,2,1,1,0.668,0.199,14
3,1,1,1,0.573,0.189,15
3,2,1,1,0.976,0.249,16
3,1,1,1,0.661,0.223,17
3,2,2,1,0.72,0.245,18
3,1,1,1,0.855,0.31,19
3,1,1,1,0.778,0.245,20
3,2,1,0.5,1.094,0.814,21
3,2,1,1,0.823,0.194,22
3,1,1,1,0.601,0.197,23
3,2,1,1,0.791,0.201,24
3,1,2,1,1.269,0.2,25
3,2,1,0.5,0.862,0.905,26
3,1,1,1,3.182,0.324,27
3,1,1,1,0.684,0.162,28
3,2,2,0.6,1.648,0.384,29
3,1,1,1,0.684,0.154,30
3,2,2,1,0.56,0.189,31
3,2,1,1,0.694,0.238,32
3,1,2,1,1.522,0.311,33
3,1,1,1,0.816,0.153,34
3,1,1,1,0.678,0.14,35
3,2,2,1,1.375,0.192,36
3,2,2,1,1.032,0.158,37
3,2,1,1,0.9,0.255,38
3,2,2,1,1.52,0.19,39
3,1,1,1,0.804,0.161,40
3,2,2,1,0.789,0.152,41
3,2,1,1,0.921,0.166,42
3,2,2,1,1.172,0.188,43
3,1,1,0.6,0.819,0.741,44
3,1,1,1,0.66,0.159,45
3,2,2,1,0.642,0.175,46
3,1,1,1,0.621,0.185,47
3,1,1,1,1.217,0.161,48
3,1,1,1,0.618,0.189,49
3,2,2,1,0.657,0.097,50
3,1,2,1,1.348,0.151,51
3,2,1,1,1.168,0.16,52
3,1,1,1,0.729,0.129,53
3,2,2,1,1.165,0.125,54
3,1,1,1,0.827,0.142,55
3,2,2,1,0.956,0.21,56
3,1,1,1,0.752,0.157,57
3,2,2,1,0.822,0.121,58
3,1,1,1,0.687,0.175,59
3,2,2,1,0.664,0.123,60
3,2,1,1,0.572,0.156,61
3,2,2,1,0.608,0.16,62
3,1,1,1,0.585,0.171,63
3,1,1,1,1.284,0.154,64
3,2,2,1,0.851,0.115,65
3,1,2,1,0.569,0.121,66
3,1,1,0.6,0.858,0.941,67
3,2,2,1,0.736,0.105,68
3,1,1,1,0.636,0.138,69
3,1,1,1,0.562,0.176,70
3,2,1,1,0.588,0.166,71
3,2,1,1,0.764,0.145,72
3,2,2,1,1.216,0.152,73
3,2,2,1,0.926,0.167,74
3,1,1,1,0.672,0.165,75
3,2,2,1,0.689,0.113,76
3,2,1,1,0.61,0.13,77
3,1,1,1,0.603,0.176,78
3,1,1,1,1.06,0.191,79
3,1,1,1,0.69,0.154,80
3,1,1,1,0.625,0.148,81
3,1,1,1,0.727,0.159,82
3,1,1,1,0.629,0.16,83
3,2,2,1,0.806,0.118,84
3,2,2,1,1.015,0.167,85
3,2,2,1,1.107,0.118,86
3,2,2,1,1.27,0.169,87
3,1,1,1,0.77,0.131,88
3,2,2,1,1.147,0.182,89
3,1,1,1,0.906,0.148,90
3,1,1,1,0.88,0.149,91
3,2,1,1,0.95,0.161,92
3,2,1,1,0.959,0.157,93
3,1,2,1,1.416,0.136,94
3,1,1,1,1.108,0.127,95
3,2,1,1,1.09,0.186,96
3,1,1,1,1.187,0.166,97
3,2,2,1,1.17,0.202,98
3,2,1,1,0.768,0.121,99
3,1,2,1,1.148,0.239,100
3,1,1,1,0.765,0.117,101
3,2,2,1,1.077,0.202,1
3,2,1,1,0.72,0.131,2
3,1,2,1,0.591,0.186,3
3,2,2,1,0.514,0.128,4
3,2,1,1,0.558,0.163,5
3,2,2,1,0.492,0.196,6
3,2,2,1,0.973,0.197,7
3,1,1,1,1.065,0.148,8
3,1,1,1,1.018,0.133,9
3,1,1,1,1.043,0.145,10
3,1,2,1,1.015,0.207,11
3,2,2,1,0.648,0.136,12
3,1,2,1,0.75,0.121,13
3,2,2,1,0.663,0.13,14
3,1,1,1,1.12,0.238,15
3,2,1,1,0.665,0.18,16
3,1,1,1,0.896,0.264,17
3,1,1,1,0.625,0.139,18
3,2,2,1,1.223,0.154,19
3,2,2,1,0.72,0.15,20
3,1,2,1,0.689,0.121,21
3,1,2,1,0.768,0.096,22
3,1,1,1,0.905,0.211,23
3,2,1,1,0.647,0.159,24
3,2,1,1,0.76,0.134,25
3,1,2,1,0.692,0.084,26
3,2,2,1,0.807,0.087,27
3,2,1,1,0.789,0.096,28
3,2,2,1,1.177,0.129,29
3,1,1,1,0.981,0.112,30
3,1,2,1,0.72,0.129,31
3,1,1,1,0.908,0.231,32
3,2,2,1,0.883,0.16,33
3,1,1,1,0.72,0.094,34
3,2,2,1,0.815,0.071,35
3,1,2,1,0.797,0.099,36
3,1,1,1,0.825,0.124,37
3,1,1,1,0.562,0.128,38
3,1,2,1,0.691,0.139,39
3,2,2,1,0.574,0.174,40
3,2,1,1,0.613,0.109,41
3,2,2,1,0.675,0.16,42
3,2,1,1,0.884,0.234,43
3,1,1,1,0.523,0.192,44
3,2,2,1,0.851,0.164,45
3,2,1,1,0.621,0.199,46
3,1,1,1,0.693,0.822,47
3,1,1,1,0.72,0.236,48
3,2,2,1,0.829,0.176,49
3,1,2,1,0.918,0.203,50
3,2,1,1,0.833,0.175,51
3,2,2,1,0.912,0.117,52
3,1,2,1,0.769,0.145,53
3,2,2,0.5,0.863,1.322,54
3,1,1,1,0.696,0.169,55
3,2,2,1,0.588,0.183,56
3,2,2,1,0.613,0.141,57
3,1,1,1,0.633,0.166,58
3,1,2,1,0.557,0.162,59
3,2,2,1,0.691,0.123,60
3,1,1,1,0.67,0.177,61
3,1,1,1,0.607,0.159,62
3,2,2,1,0.699,0.102,63
3,2,1,1,0.655,0.151,64
3,1,1,1,0.674,0.152,65
3,2,1,1,0.803,0.145,66
3,1,1,1,0.751,0.125,67
3,2,1,1,0.779,0.149,68
3,2,2,1,1.153,0.191,69
3,2,1,1,0.778,0.141,70
3,1,1,1,0.603,0.136,71
3,1,2,1,0.572,0.148,72
3,1,1,1,0.576,0.152,73
3,1,1,1,0.544,0.211,74
3,2,1,1,0.72,0.111,75
3,2,1,1,0.629,0.152,76
3,2,1,1,0.659,0.094,77
3,2,1,1,0.684,0.122,78
3,1,1,1,0.984,0.355,79
3,1,1,1,0.772,0.092,80
3,2,2,1,0.664,0.083,81
3,1,1,1,0.638,0.076,82
3,1,1,1,0.845,0.133,83
3,1,1,1,0.72,0.102,84
3,2,2,1,1.097,0.129,85
3,1,2,1,0.818,0.085,86
3,2,1,1,0.734,0.119,87
3,2,1,1,0.72,0.058,88
3,1,2,1,0.915,0.176,89
3,2,2,1,0.857,0.097,90
3,1,2,1,0.642,0.119,91
3,2,2,1,1.776,0.128,92
3,1,1,0.5,0.743,1.401,93
3,2,2,1,1.115,0.16,94
3,1,1,1,0.884,0.106,95
3,2,2,1,0.683,0.056,96
3,1,1,1,0.878,0.148,97
3,2,2,1,0.85,0.146,98
3,1,1,1,0.72,0.109,99
3,1,1,1,0.825,0.116,100
3,2,2,1,0.855,0.104,101
3,1,1,0.5,4.622,0.258,1
3,1,2,1,1.224,0.178,2
3,2,2,1,0.688,0.144,3
3,1,1,1,0.492,0.108,4
3,2,2,1,0.496,0.079,5
3,2,2,1,0.728,0.08,6
3,2,1,1,0.537,0.201,7
3,2,1,1,0.914,0.111,8
3,1,1,1,0.653,0.102,9
3,2,1,0.5,0.695,0.758,10
3,1,1,1,1.123,0.168,11
3,1,2,1,0.724,0.129,12
3,1,2,1,1.591,0.085,13
3,2,2,1,1.123,0.113,14
3,2,2,1,0.911,0.077,15
3,2,2,1,0.677,0.123,16
3,1,1,1,0.72,0.209,17
3,2,2,1,0.477,0.138,18
3,1,1,1,0.633,0.126,19
3,1,2,1,0.695,0.119,20
3,1,1,1,0.647,0.151,21
3,2,2,1,0.657,0.129,22
3,2,2,1,0.58,0.079,23
3,1,1,1,0.725,0.133,24
3,1,1,1,0.638,0.155,25
3,2,1,1,0.727,0.183,26
3,1,2,1,0.523,0.105,27
3,2,1,1,0.956,0.321,28
3,2,1,1,0.887,0.143,29
3,1,1,1,0.678,0.124,30
3,2,1,1,1.369,0.481,31
3,1,1,1,0.696,0.168,32
3,2,2,1,0.843,0.067,33
3,1,1,1,0.695,0.135,34
3,1,1,1,0.992,0.109,35
3,2,2,1,0.99,0.145,36
3,2,1,1,0.917,0.066,37
3,1,1,1,0.768,0.048,38
3,1,1,1,0.806,0.039,39
3,1,1,1,0.72,0.042,40
3,2,2,1,0.897,0.081,41
3,1,1,1,0.732,0.124,42
3,1,2,1,0.693,0.061,43
3,2,1,1,0.604,0.105,44
3,2,2,1,1.101,0.088,45
3,2,1,1,0.747,0.134,46
3,2,2,1,0.974,0.062,47
3,2,1,0.5,0.869,0.944,48
3,1,1,1,0.828,0.062,49
3,2,1,1,0.839,0.085,50
3,2,1,1,0.787,0.102,51
3,1,1,1,0.72,0.092,52
3,1,2,1,1.135,0.12,53
3,1,1,1,0.795,0.113,54
3,2,1,1,0.794,0.112,55
3,1,1,1,0.656,0.064,56
3,2,2,1,0.739,0.198,57
3,1,1,1,0.567,0.127,58
3,1,1,1,0.603,0.097,59
3,1,1,1,0.641,0.104,60
3,2,2,1,0.784,0.122,61
3,2,2,1,0.659,0.086,62
3,1,1,1,0.612,0.06,63
3,2,2,1,0.664,0.09,64
3,1,1,1,0.846,0.11,65
3,1,2,1,0.546,0.236,66
3,2,1,1,0.605,0.093,67
3,2,2,1,0.659,0.046,68
3,1,1,1,0.572,0.156,69
3,2,2,1,0.602,0.112,70
3,1,1,1,0.593,0.094,71
3,2,2,1,0.458,0.114,72
3,1,1,1,0.576,0.144,73
3,2,2,1,0.566,0.118,74
3,2,2,1,0.796,0.01,75
3,1,1,1,0.786,0.117,76
3,2,2,1,0.612,0.076,77
3,1,1,1,0.543,0.146,78
3,2,1,1,0.654,0.078,79
3,1,2,1,0.591,0.241,80
3,1,1,1,0.698,0.005,81
3,2,2,1,0.63,0.089,82
3,2,1,1,1.337,0.226,83
3,1,1,1,0.72,0.128,84
3,1,1,1,0.694,0.174,85
3,2,1,1,0.62,0.055,86
3,1,2,1,0.659,0.11,87
3,1,1,1,0.606,0.078,88
3,2,2,1,0.586,0.077,89
3,2,2,1,0.747,0.005,90
3,1,2,1,0.609,0.097,91
3,1,2,1,0.72,0.079,92
3,2,2,1,0.811,0.075,93
3,2,2,1,0.82,0.108,94
3,1,1,1,1.328,0.128,95
3,1,1,1,0.729,0.121,96
3,2,2,1,0.663,0.082,97
3,1,1,1,0.84,0.181,98
3,2,2,1,0.9,0.079,99
3,1,1,1,0.765,0.094,100
3,2,1,1,0.795,0.089,101
3,2,2,1,0.622,1.001,1
3,2,2,1,0.72,0.109,2
3,2,2,1,0.478,0.091,3
3,2,2,1,0.569,0.073,4
3,1,2,1,0.648,0.055,5
3,1,2,1,0.638,0.155,6
3,1,1,1,0.588,0.071,7
3,2,2,1,0.744,0.106,8
3,1,1,1,0.774,0.126,9
3,2,1,1,1.052,0.116,10
3,1,1,1,0.736,0.088,11
3,2,2,1,0.849,0.081,12
3,1,1,1,0.69,0.082,13
3,1,2,1,0.592,0.086,14
3,2,2,1,0.625,0.108,15
3,1,1,1,0.532,0.101,16
3,2,1,1,0.672,0.094,17
3,2,1,1,0.692,0.171,18
3,1,1,1,0.813,0.213,19
3,2,2,1,0.486,0.07,20
3,1,1,1,0.75,0.129,21
3,1,1,1,0.602,0.08,22
3,2,2,1,0.776,0.016,23
3,2,2,1,0.631,0.098,24
3,1,1,1,0.544,0.091,25
3,2,1,1,0.638,0.067,26
3,1,1,1,0.735,0.103,27
3,1,1,1,0.538,0.061,28
3,1,2,1,0.72,0.105,29
3,1,1,1,0.5,0.063,30
3,2,2,1,0.544,0.091,31
3,2,1,1,0.644,0.049,32
3,2,2,1,0.532,0.045,33
3,1,1,1,0.475,0.056,34
3,2,2,1,0.548,0.103,35
3,2,1,1,0.799,0.028,36
3,2,2,1,0.557,0.075,37
3,1,1,1,0.79,0.073,38
3,1,1,1,0.692,0.068,39
3,2,2,1,0.619,0.085,40
3,1,1,1,0.796,0.057,41
3,1,1,1,0.578,0.074,42
3,1,1,1,0.565,0.037,43
3,2,2,1,0.91,0.033,44
3,2,2,1,0.677,0,45
3,2,1,1,0.677,0.083,46
3,1,1,1,0.58,0.055,47
3,1,1,1,0.869,0.088,48
3,2,2,1,0.883,0.041,49
3,2,2,1,0.983,0.074,50
3,1,1,1,0.63,0.128,51
3,1,1,1,0.7,0.175,52
3,1,1,1,0.949,0.136,53
3,2,1,1,0.785,0.051,54
3,1,1,1,1.185,0.133,55
3,2,1,1,0.944,0.051,56
3,2,2,1,0.761,0.135,57
3,1,2,1,0.688,0.071,58
3,2,2,1,0.606,0.093,59
3,2,2,1,0.604,0.05,60
3,1,1,1,0.751,0.085,61
3,2,1,1,0.72,0.089,62
3,1,2,1,0.72,0.071,63
3,2,2,1,0.808,0.52,64
3,1,2,1,0.86,0.046,65
3,2,1,0.6,0.793,0.719,66
3,2,2,1,0.603,0.056,67
3,1,2,1,0.588,0.087,68
3,2,1,1,0.581,0.047,69
3,2,2,1,0.763,0.056,70
3,1,1,1,0.697,0.057,71
3,1,2,1,0.775,0.088,72
3,1,1,1,0.776,0.016,73
3,2,2,1,0.647,0.014,74
3,2,1,1,0.898,0.037,75
3,1,1,1,0.838,0.019,76
3,2,1,1,0.793,0.03,77
3,1,1,1,0.562,0.032,78
3,1,1,1,0.859,0,79
3,2,2,1,0.823,0.049,80
3,1,1,1,0.76,0.069,81
3,1,1,1,0.54,0.014,82
3,1,1,1,0.637,0.018,83
3,2,2,1,0.691,0.019,84
3,2,2,1,0.532,0.036,85
3,2,2,1,0.62,0.047,86
3,1,1,1,0.757,0.027,87
3,1,1,1,0.614,0.062,88
3,2,2,1,0.511,0.029,89
3,1,2,1,0.56,0.021,90
3,2,1,1,0.676,0.089,91
3,2,2,1,0.815,0.103,92
3,1,1,1,0.523,0.064,93
3,2,2,1,0.609,0.073,94
3,1,1,1,0.739,0.013,95
3,1,1,1,0.596,0.073,96
3,2,1,1,1.924,1.85,97
3,2,2,1,0.835,0.041,98
3,2,1,1,0.586,0.013,99
3,2,2,1,0.726,0.07,100
3,2,2,1,0.56,0.094,1
3,1,1,1,0.569,0.121,2
3,1,2,1,0.471,0.085,3
3,1,1,1,0.552,0.053,4
3,1,2,1,0.55,0.122,5
3,1,2,1,0.631,0.141,6
3,1,1,1,0.72,0.083,7
3,2,2,1,1.268,0.103,8
3,2,1,1,0.448,0.056,9
3,1,1,1,0.539,0.07,10
3,1,1,1,0.629,0.063,11
3,2,2,1,0.734,0.077,12
3,2,2,1,0.518,0.043,13
3,1,1,1,0.498,0.05,14
3,1,1,1,0.646,0.053,15
3,2,2,1,0.937,0.057,16
3,2,2,1,0.73,0.067,17
3,2,2,1,0.768,0.048,18
3,1,2,1,1.361,0.143,19
3,2,2,1,0.685,0,20
3,1,2,1,1.425,0.116,21
3,1,2,1,1.055,0.136,22
3,1,2,1,1.11,0.073,23
3,2,2,1,0.986,0.093,24
3,2,2,1,0.928,0.056,25
3,2,2,1,1.195,0.081,26
3,2,2,0.7,1.34,0.591,27
3,1,2,0.7,0.955,0.121,28
3,1,2,0.6,1.073,1.839,29
3,1,1,1,0.835,0.209,30
3,2,2,1,1.18,0.119,31
3,2,1,1,1.176,0.208,32
3,1,2,1,1.465,0.068,33
3,2,1,1,0.581,0.08,34
3,1,2,1,0.84,0.03,35
3,1,1,1,1.375,0.071,36
3,2,2,1,0.752,0,37
3,2,1,1,1.452,0.012,38
3,1,2,1,0.938,0.045,39
3,1,1,1,0.859,0.11,40
3,2,2,1,0.847,0.087,41
3,2,1,1,0.872,0.07,42
3,2,2,1,0.72,0.084,43
3,1,1,1,0.925,0,44
3,1,2,1,0.723,0.08,45
3,1,2,1,1.02,0.071,46
3,2,1,0.5,2.071,0.477,47
3,1,1,1,0.774,0.191,48
3,1,1,1,0.599,0.085,49
3,2,2,1,0.542,0.072,50
3,2,1,1,0.553,0.111,51
3,2,2,1,0.72,0.066,52
3,1,1,1,0.72,0.078,53
3,1,1,1,0.657,0.065,54
3,1,2,1,0.647,0.104,55
3,2,2,0.5,0.941,0.889,56
3,2,1,1,0.609,0.01,57
3,1,1,1,0.72,0.064,58
3,2,2,1,0.931,0.011,59
3,1,1,1,0.82,0.127,60
3,2,2,1,0.789,0.112,61
3,2,2,1,0.825,0.052,62
3,2,1,1,0.799,0.108,63
3,1,2,1,0.765,0.07,64
3,2,1,1,1.409,0.161,65
3,2,2,1,0.872,0.037,66
3,1,2,1,0.587,0.07,67
3,1,2,1,0.759,0.124,68
3,1,2,1,0.73,0.042,69
3,1,1,1,0.886,0.078,70
3,2,1,1,0.72,0.039,71
3,1,1,1,0.765,0.125,72
3,2,2,1,0.755,0.073,73
3,2,1,1,0.575,0.039,74
3,2,2,1,0.77,0.099,75
3,1,1,1,0.606,0.03,76
3,1,1,1,0.698,0.06,77
3,1,2,1,0.643,0.104,78
3,2,2,1,0.731,0.067,79
3,2,1,1,0.578,0.028,80
3,2,2,1,0.691,0.091,81
3,1,2,1,0.627,0.062,82
3,1,2,1,0.668,0.079,83
3,2,1,1,0.613,0.037,84
3,1,2,1,0.699,0.318,85
3,2,1,1,0.636,0.066,86
3,1,2,1,0.739,0.014,87
3,2,2,1,0.777,0.041,88
3,2,1,1,0.925,0.077,89
3,1,1,1,0.784,0.115,90
3,1,1,1,1.367,0.039,91
3,2,2,1,1.112,0.061,92
3,1,1,1,0.833,0.014,93
3,2,2,1,0.799,0.037,94
3,1,1,1,0.917,0.027,95
3,2,2,1,1.244,0.049,96
3,1,1,1,0.68,0.029,97
3,2,2,1,0.74,0.054,98
3,1,2,1,0.809,0.034,99
3,2,1,1,0.563,0.055,100
3,1,1,1,0.654,0.014,101
3,1,1,1,0.801,0.183,102
3,1,2,1,0.925,0.013,103
3,1,1,1,0.638,0.028,104
3,1,1,1,0.762,0,105
3,2,2,1,0.67,0.056,106
3,2,1,1,0.569,0,107
3,2,2,1,0.549,0.104,108
3,2,2,1,0.629,0.064,109
4,1,1,0.7,0.783,0.842,1
4,1,1,0.7,0.803,0.8,2
4,2,1,0.7,1.324,0.561,3
4,2,1,0.6,0.72,0.523,4
4,2,1,0.7,0.828,0.478,5
4,2,1,0.7,0.978,0.469,6
4,1,1,0.7,1.081,0.902,7
4,1,1,0.8,0.957,0.466,8
4,1,1,0.9,0.55,0.969,9
4,2,1,0.8,0.775,0.647,10
4,1,1,0.7,0.656,0.424,11
4,2,1,0.7,1.033,0.702,12
4,1,1,0.6,0.663,0.658,13
4,1,1,0.7,0.809,0.505,14
4,2,2,0.8,0.581,1.703,15
4,2,1,0.7,0.72,0.603,16
4,1,1,0.7,0.663,0.458,17
4,2,1,0.8,0.568,0.448,18
4,1,1,0.8,0.628,0.726,19
4,1,1,0.7,0.698,0.541,20
4,1,1,0.7,0.587,0.478,21
4,2,1,0.7,0.575,0.319,22
4,2,2,0.6,0.688,0.888,23
4,2,1,0.7,0.694,7.503,24
4,2,2,0.7,1.178,0.757,25
4,1,1,0.8,0.534,0.534,26
4,1,1,0.9,0.631,0.525,27
4,2,1,0.7,0.766,175.141,28
4,2,2,0.9,0.676,2.074,29
4,1,1,0.7,0.867,0.726,30
4,1,1,0.8,0.693,0.924,31
4,2,2,0.8,0.747,0.494,32
4,2,2,0.7,0.57,0.506,33
4,2,2,0.7,1.067,0.55,34
4,2,1,0.8,0.607,0.551,35
4,2,2,0.8,0.605,0.293,36
4,1,1,0.8,0.899,0.502,37
4,1,2,0.7,0.937,0.626,38
4,1,1,0.8,0.72,0.784,39
4,1,1,0.7,0.638,0.476,40
4,2,2,0.8,0.605,1.157,41
4,1,2,0.7,0.825,0.659,42
4,1,1,0.8,0.828,0.647,43
4,2,2,0.9,0.638,0.691,44
4,1,1,0.6,1.002,0.975,45
4,2,2,0.9,0.669,0.488,46
4,1,1,0.9,0.878,0.484,47
4,2,2,0.8,0.72,0.834,48
4,2,2,0.8,0.985,0.675,49
4,2,2,0.8,1.111,0.482,50
4,1,1,0.9,0.755,0.576,51
4,1,2,0.8,0.753,0.711,52
4,2,1,0.9,0.886,0.589,53
4,1,2,0.5,0.673,1.422,54
4,1,1,0.8,0.653,0.949,55
4,2,2,0.8,0.678,0.54,56
4,2,2,0.8,0.674,0.375,57
4,2,2,0.7,0.776,0.536,58
4,2,2,0.8,0.772,0.732,59
4,1,1,0.8,0.592,0.461,60
4,1,1,0.8,0.796,0.321,61
4,2,2,0.9,0.668,0.791,62
4,1,2,0.8,0.59,0.656,63
4,1,1,0.8,0.72,0.751,64
4,1,1,0.8,0.869,0.4,65
4,1,1,0.8,0.777,0.513,66
4,2,2,0.8,0.752,0.293,67
4,2,2,0.8,0.635,0.289,68
4,2,2,0.7,1.695,2.44,69
4,2,2,0.7,0.623,0.689,70
4,1,1,0.7,0.619,0.549,71
4,1,1,0.7,0.74,0.479,72
4,2,2,0.6,0.666,1.149,73
4,2,2,0.6,0.72,1.068,74
4,2,2,0.8,0.938,0.725,75
4,1,1,0.8,0.95,0.714,76
4,2,2,0.9,0.56,0.477,77
4,1,2,0.7,0.873,0.486,78
4,1,1,0.9,0.778,0.741,79
4,1,1,0.9,0.622,0.353,80
4,1,1,0.9,0.737,0.201,81
4,2,1,0.8,1.014,0.453,82
4,2,1,0.9,0.582,0.289,83
4,2,2,0.7,0.72,0.428,84
4,1,1,0.7,0.862,0.584,85
4,2,2,0.7,1.329,0.377,86
4,1,2,0.8,1.378,0.373,87
4,1,1,0.6,0.769,0.817,88
4,2,2,0.5,0.853,0.685,89
4,1,2,0.6,0.752,0.75,90
4,2,2,0.7,0.724,0.586,91
4,1,1,0.7,0.72,0.819,92
4,1,2,0.5,0.62,0.966,93
4,2,1,0.6,0.773,0.517,94
4,1,1,0.6,0.585,0.412,95
4,2,2,0.5,0.778,0.541,96
4,2,1,0.7,0.558,0.451,97
4,1,1,0.7,0.804,0.449,98
4,2,2,0.7,0.818,0.349,99
4,2,2,0.6,0.662,0.641,100
4,1,1,0.6,0.663,0.546,101
4,1,1,0.8,0.776,1.096,1
4,1,1,0.8,0.737,0.577,2
4,2,2,0.7,0.687,0.552,3
4,1,1,0.7,0.648,0.425,4
4,2,2,0.6,0.647,0.567,5
4,1,1,0.9,0.656,1.2,6
4,2,2,0.8,0.682,0.863,7
4,2,2,0.7,0.662,0.896,8
4,2,2,0.7,0.614,0.358,9
4,1,1,0.8,0.69,0.57,10
4,1,1,0.7,0.622,0.377,11
4,1,1,0.8,0.834,0.495,12
4,1,1,0.8,0.654,0.278,13
4,2,2,0.8,0.748,0.215,14
4,2,1,0.7,0.861,0.56,15
4,1,1,0.8,0.79,0.313,16
4,1,1,0.8,0.604,0.25,17
4,2,2,0.7,1.117,0.723,18
4,2,1,0.9,0.625,2.364,19
4,2,2,0.5,0.968,1.008,20
4,1,1,0.6,0.668,0.455,21
4,2,2,0.6,0.768,0.528,22
4,1,1,0.7,0.579,0.334,23
4,1,1,0.7,0.836,0.338,24
4,2,2,0.8,0.808,0.712,25
4,2,2,0.8,0.823,0.601,26
4,1,2,0.7,0.691,0.739,27
4,2,2,0.8,0.668,0.59,28
4,1,2,0.5,0.605,1.205,29
4,2,2,0.8,0.766,0.894,30
4,2,2,0.8,0.591,0.698,31
4,2,2,0.8,0.589,0.328,32
4,1,1,0.8,0.591,0.273,33
4,1,2,0.5,0.938,0.741,34
4,1,1,0.9,0.55,1.289,35
4,2,2,0.9,0.618,0.202,36
4,2,2,0.9,0.693,0.213,37
4,2,1,0.8,0.948,0.503,38
4,1,1,0.9,0.695,0.192,39
4,2,2,0.7,0.867,1.182,40
4,1,1,0.9,0.62,0.447,41
4,1,1,0.9,0.635,0.208,42
4,1,1,1,0.641,0.318,43
4,1,1,0.9,0.554,0.191,44
4,1,1,0.9,0.563,0.152,45
4,2,1,0.7,0.833,1.022,46
4,2,2,0.9,0.776,0.416,47
4,1,1,0.9,0.523,0.249,48
4,2,1,0.9,1.151,0.506,49
4,1,1,0.8,0.795,0.4,50
4,2,1,0.7,0.54,0.519,51
4,1,1,0.7,0.941,0.536,52
4,1,1,0.7,0.681,0.406,53
4,2,2,0.6,0.799,0.605,54
4,1,1,0.8,0.619,0.326,55
4,2,2,0.8,1.284,1.493,56
4,1,1,0.7,0.777,0.745,57
4,2,2,0.7,0.762,0.559,58
4,2,1,0.8,0.662,1.184,59
4,2,2,0.7,0.743,0.618,60
4,2,2,0.7,0.72,0.697,61
4,2,1,0.7,0.62,0.287,62
4,2,1,0.7,0.746,0.261,63
4,1,1,0.6,0.734,0.374,64
4,1,2,0.6,0.847,0.543,65
4,1,1,0.9,0.633,0.28,66
4,1,1,0.7,0.971,0.427,67
4,2,1,0.7,1.445,0.413,68
4,2,2,0.8,0.843,0.296,69
4,2,2,0.8,0.666,0.212,70
4,1,2,0.8,0.663,0.146,71
4,1,1,0.7,1.248,0.369,72
4,1,1,0.8,0.724,0.426,73
4,2,2,0.8,0.643,0.208,74
4,1,1,0.9,0.594,0.303,75
4,1,1,0.9,1.434,0.944,76
4,1,1,0.9,0.956,0.313,77
4,2,1,0.7,1.088,0.472,78
4,2,2,0.9,0.662,0.457,79
4,2,1,0.8,1.167,0.479,80
4,1,1,0.7,0.622,0.4,81
4,2,2,0.6,0.657,0.633,82
4,1,1,0.7,0.648,0.448,83
4,1,1,0.8,0.904,0.419,84
4,2,2,0.8,0.903,0.394,85
4,2,2,0.7,1.445,1.174,86
4,2,1,0.8,1.157,1.85,87
4,2,2,0.8,0.817,0.265,88
4,1,2,0.9,1.33,0.194,89
4,1,1,0.9,1.073,0.246,90
4,1,1,0.7,1.228,0.599,91
4,2,1,0.7,1.453,0.262,92
4,2,2,0.7,0.721,0.222,93
4,2,1,0.7,1.269,0.16,94
4,1,2,0.8,1.155,0.617,95
4,1,1,0.9,0.813,0.381,96
4,2,2,0.7,1.321,0.862,97
4,1,1,0.9,1.039,0.357,98
4,1,2,0.7,1.451,0.804,99
4,2,1,0.8,1.079,0.781,100
4,1,2,0.8,0.926,0.526,101
4,1,1,0.7,1.247,0.759,1
4,2,1,0.8,1.075,0.408,2
4,1,2,0.8,1.295,0.255,3
4,1,1,0.8,1.245,0.262,4
4,2,1,0.7,0.961,0.479,5
4,2,1,0.7,1.24,0.741,6
4,2,2,0.7,1.289,0.633,7
4,1,1,0.8,1.285,0.406,8
4,2,2,0.7,1.588,0.783,9
4,2,2,0.7,0.851,0.315,10
4,1,1,0.7,0.695,0.199,11
4,1,1,0.8,0.941,0.136,12
4,1,1,0.7,0.976,0.769,13
4,2,2,0.9,0.956,0.314,14
4,2,1,0.9,1.613,0.27,15
4,1,2,0.8,0.889,1.746,16
4,1,1,0.9,0.752,0.23,17
4,1,2,0.7,0.948,0.502,18
4,1,1,0.8,0.695,0.352,19
4,2,2,0.9,0.833,0.222,20
4,2,2,0.9,0.776,0.159,21
4,2,2,0.9,0.72,0.12,22
4,1,1,0.7,1.263,0.874,23
4,1,2,0.7,0.744,0.427,24
4,2,2,0.7,0.652,0.308,25
4,2,1,0.7,0.898,0.341,26
4,1,2,0.7,0.638,0.235,27
4,2,2,0.6,0.818,0.724,28
4,1,1,0.7,0.955,2.256,29
4,2,2,0.9,0.631,0.381,30
4,1,1,0.7,1.2,0.59,31
4,1,1,0.8,0.863,0.418,32
4,1,1,0.7,0.949,1.88,33
4,2,2,0.8,0.732,0.252,34
4,2,2,0.8,0.76,0.358,35
4,2,2,0.8,0.886,0.214,36
4,2,2,0.6,0.693,1.157,37
4,1,1,0.8,0.924,1.281,38
4,1,1,0.7,1.522,0.768,39
4,2,1,0.6,1.326,0.695,40
4,2,2,0.8,1.605,1.061,41
4,1,1,0.9,0.953,0.871,42
4,2,2,0.9,0.797,0.602,43
4,2,2,0.7,1.463,0.457,44
4,1,1,0.7,1.128,0.696,45
4,1,1,0.7,1.086,0.423,46
4,2,2,0.7,0.925,0.253,47
4,1,1,0.9,0.859,0.294,48
4,1,2,0.9,1.3,0.215,49
4,1,1,0.7,0.784,0.243,50
4,2,1,0.7,1.3,0.415,51
4,2,2,0.8,1.043,0.376,52
4,1,1,0.8,0.782,0.577,53
4,2,2,0.8,0.72,0.402,54
4,2,2,0.8,1.379,1.142,55
4,1,2,0.8,1.498,0.389,56
4,1,2,0.7,0.873,1.166,57
4,1,1,0.7,0.626,0.877,58
4,2,1,0.6,1.398,0.716,59
4,1,1,0.6,1.106,0.405,60
4,2,2,0.7,0.939,0.414,61
4,2,1,0.7,0.72,0.975,62
4,2,2,0.7,0.632,0.237,63
4,1,1,0.8,1.878,1.436,64
4,1,1,0.8,1.235,0.265,65
4,2,2,0.8,1.047,0.239,66
4,1,1,0.8,1.362,0.352,67
4,1,2,0.8,0.825,0.292,68
4,2,1,0.6,1.821,2.448,69
4,2,1,0.7,2.052,0.757,70
4,2,2,0.8,1.291,0.476,71
4,2,1,0.8,1.477,0.331,72
4,2,1,0.7,1.425,0.3,73
4,1,1,0.8,0.839,0.524,74
4,1,2,0.7,1.744,0.819,75
4,2,1,0.6,0.765,0.706,76
4,1,2,0.6,1.91,0.289,77
4,1,2,0.7,1.402,0.447,78
4,2,2,0.7,0.872,0.398,79
4,1,1,0.7,0.751,0.337,80
4,1,1,0.7,0.941,0.32,81
4,2,2,0.7,0.945,0.283,82
4,2,2,0.8,0.802,0.208,83
4,1,1,0.8,1.107,0.262,84
4,1,2,0.8,1.078,0.172,85
4,2,2,0.8,0.975,0.168,86
4,1,1,0.8,0.694,0.126,87
4,2,2,0.8,0.892,0.124,88
4,1,1,0.8,0.741,0.144,89
4,2,2,0.8,0.625,0.132,90
4,1,1,0.8,0.65,0.106,91
4,1,1,0.8,1.12,0.134,92
4,2,2,0.7,0.932,0.188,93
4,2,2,0.7,1.17,0.17,94
4,1,1,0.7,0.782,0.24,95
4,2,1,0.7,0.738,0.306,96
4,2,2,0.7,0.725,0.237,97
4,1,1,0.7,0.595,0.161,98
4,1,1,0.7,0.761,0.199,99
4,2,2,0.7,0.675,0.168,100
4,1,1,0.7,0.817,0.233,101
4,2,2,0.8,0.761,0.462,1
4,1,1,0.8,0.786,0.237,2
4,2,1,0.8,0.918,0.211,3
4,2,1,0.7,1.143,0.202,4
4,2,2,0.7,0.776,0.176,5
4,1,1,0.8,0.651,0.571,6
4,2,2,0.8,0.991,0.125,7
4,1,1,0.8,0.638,0.251,8
4,1,1,0.7,1.265,0.428,9
4,1,1,0.8,0.965,0.781,10
4,1,1,0.9,0.742,0.281,11
4,2,2,0.9,0.813,0.173,12
4,2,2,0.9,1.083,0.208,13
4,2,1,0.8,1.068,0.567,14
4,1,1,0.8,0.728,0.144,15
4,1,1,0.7,1.129,0.145,16
4,2,1,0.6,0.994,0.72,17
4,1,1,0.6,1.009,0.401,18
4,2,2,0.7,1.175,0.351,19
4,1,1,0.7,1.03,1.153,20
4,2,1,0.8,0.892,0.453,21
4,1,2,0.7,1.205,0.918,22
4,2,1,0.7,0.852,0.42,23
4,2,1,0.8,1.179,0.277,24
4,1,1,0.8,0.54,0.199,25
4,2,2,0.8,1.325,0.445,26
4,1,1,0.9,0.993,0.358,27
4,1,1,0.9,1.202,0.327,28
4,1,1,0.8,1.009,0.241,29
4,2,2,0.8,0.72,0.266,30
4,2,2,0.7,0.687,0.336,31
4,2,1,0.7,0.723,0.385,32
4,1,2,0.6,1.26,0.503,33
4,2,2,0.8,1.149,0.512,34
4,2,1,0.8,1.756,0.722,35
4,2,2,0.8,0.656,0.232,36
4,1,1,0.7,1.45,0.714,37
4,1,2,0.7,0.742,0.257,38
4,1,2,0.8,0.775,0.167,39
4,1,1,0.7,1.096,0.528,40
4,2,2,0.7,0.72,0.433,41
4,2,1,0.7,1.106,0.477,42
4,2,2,0.7,0.763,0.345,43
4,2,1,0.7,0.631,0.402,44
4,1,1,0.7,0.995,0.472,45
4,2,2,0.8,0.794,0.623,46
4,1,1,0.9,1.208,0.296,47
4,1,1,0.8,1.556,0.385,48
4,1,2,0.9,1.418,0.389,49
4,1,1,0.8,1.481,0.207,50
4,1,2,0.8,1.224,0.282,51
4,1,1,1,0.606,0.486,52
4,1,2,0.8,1.356,0.714,53
4,2,2,1,0.851,0.46,54
4,2,1,0.8,1.543,0.282,55
4,2,2,0.8,0.755,0.2,56
4,2,2,0.8,0.689,0.129,57
4,2,2,0.7,0.85,0.282,58
4,1,1,0.8,0.678,0.243,59
4,2,1,0.8,0.775,0.191,60
4,1,1,0.7,0.946,0.397,61
4,1,2,0.7,0.761,0.326,62
4,2,2,0.9,1.122,0.367,63
4,2,2,0.9,0.768,0.208,64
4,1,1,0.9,1.151,0.193,65
4,1,1,0.8,1.621,0.12,66
4,1,2,0.7,1.465,0.636,67
4,2,2,0.7,0.741,0.2,68
4,2,1,0.8,0.563,0.689,69
4,2,2,0.7,0.802,1.007,70
4,2,2,0.7,0.928,0.505,71
4,1,2,0.7,0.679,0.332,72
4,1,2,0.7,0.907,0.221,73
4,1,1,0.8,0.985,0.243,74
4,1,1,0.8,1.044,0.274,75
4,2,2,0.9,0.747,0.598,76
4,1,2,0.8,0.865,0.484,77
4,2,2,0.9,0.757,0.266,78
4,2,2,0.9,0.683,0.169,79
4,2,2,0.9,0.735,0.119,80
4,1,1,0.8,1.317,0.434,81
4,1,1,0.8,0.868,0.39,82
4,1,2,0.8,0.925,0.157,83
4,2,2,0.9,0.835,0.312,84
4,1,1,0.8,0.889,0.433,85
4,2,2,0.8,1.088,0.24,86
4,2,2,0.9,0.625,0.236,87
4,2,2,0.9,0.855,0.232,88
4,1,1,0.8,1.134,0.198,89
4,2,2,0.8,0.563,0.284,90
4,2,2,0.8,0.928,0.184,91
4,1,1,0.7,1.065,0.46,92
4,1,2,0.7,1.712,0.797,93
4,1,2,0.7,0.724,0.473,94
4,2,2,0.6,0.618,0.301,95
4,2,1,0.6,1.089,1.041,96
4,1,1,0.8,1.104,0.387,97
4,2,2,0.8,0.686,0.169,98
4,1,1,0.8,0.831,0.122,99
4,1,1,0.8,0.848,0.192,100
4,1,1,0.8,1.469,0.472,1
4,2,2,0.8,1.537,1.306,2
4,1,1,0.9,0.856,0.144,3
4,2,1,0.8,0.985,0.252,4
4,2,1,0.8,1.57,0.267,5
4,1,1,0.8,0.996,0.193,6
4,1,2,0.8,1.512,0.237,7
4,1,1,0.8,1.195,0.129,8
4,2,2,0.8,1.1,0.319,9
4,2,2,0.7,1.08,0.43,10
4,2,2,0.8,0.881,0.503,11
4,2,1,0.7,1.283,1.088,12
4,1,1,0.8,1.065,0.556,13
4,1,1,0.8,1.096,0.52,14
4,2,2,0.8,1.556,0.169,15
4,2,1,0.8,1.128,0.568,16
4,2,1,0.8,1.238,0.308,17
4,1,1,0.8,0.885,0.445,18
4,2,2,0.8,0.968,0.329,19
4,1,2,0.8,1.036,0.306,20
4,1,1,0.8,1.176,0.208,21
4,1,2,0.7,1.292,0.588,22
4,1,1,0.6,1.482,2.272,23
4,2,2,0.7,1.015,0.367,24
4,2,2,0.6,0.925,0.686,25
4,2,2,0.7,1.041,0.263,26
4,1,1,0.8,1.199,0.645,27
4,1,1,0.8,0.745,0.404,28
4,2,2,0.8,1.008,0.608,29
4,2,2,0.9,0.72,0.199,30
4,2,1,0.9,1.191,0.181,31
4,2,2,0.7,0.867,0.678,32
4,2,2,0.7,1.085,0.325,33
4,1,1,0.7,1.105,0.46,34
4,1,1,0.7,0.949,0.223,35
4,1,1,0.6,1.24,0.79,36
4,1,1,0.7,0.956,0.938,37
4,2,2,0.7,1.051,0.331,38
4,2,2,0.8,1.57,0.482,39
4,1,1,0.7,1.011,0.219,40
4,1,1,0.7,0.988,0.159,41
4,1,1,0.7,1.408,0.112,42
4,2,2,0.7,1.254,0.151,43
4,2,1,0.7,0.967,0.383,44
4,1,1,0.7,0.601,0.166,45
4,2,1,0.7,0.956,0.202,46
4,1,2,0.8,0.978,0.125,47
4,2,1,0.8,1.769,0.273,48
4,1,1,0.8,1.05,0.178,49
4,1,1,0.8,0.782,0.089,50
4,1,1,0.7,0.911,0.378,51
4,2,1,0.8,0.906,0.133,52
4,2,1,0.7,1.465,0.492,53
4,2,2,0.7,0.812,0.172,54
4,2,2,0.7,0.979,0.245,55
4,1,1,0.7,1.001,0.327,56
4,2,1,0.7,1.237,0.29,57
4,2,1,0.7,1.078,0.212,58
4,1,1,0.8,0.562,0.503,59
4,1,1,0.6,1.63,0.609,60
4,1,1,0.7,1.05,0.69,61
4,1,1,0.8,1.222,0.425,62
4,1,1,0.8,0.764,0.138,63
4,1,1,0.8,0.971,0.106,64
4,2,2,0.8,0.745,0.124,65
4,2,2,0.9,1.196,0.386,66
4,2,2,0.9,0.907,0.262,67
4,1,2,0.9,1.028,0.207,68
4,2,2,0.8,1.016,0.32,69
4,1,1,0.7,1.689,0.809,70
4,1,1,0.8,1.36,0.413,71
4,2,1,0.8,1.068,0.295,72
4,1,1,0.8,1.034,0.144,73
4,1,2,0.8,1.276,0.369,74
4,2,2,0.6,0.77,0.93,75
4,2,2,0.7,0.862,0.289,76
4,2,2,0.8,0.86,0.327,77
4,1,1,0.8,0.768,0.16,78
4,1,2,0.8,1.086,0.406,79
4,1,2,1,0.735,0.423,80
4,2,2,0.8,1.403,0.169,81
4,2,2,0.8,1.43,0.105,82
4,2,2,0.7,1.421,0.12,83
4,1,1,0.7,1.14,0.278,84
4,2,2,0.7,0.858,0.365,85
4,1,1,0.8,0.976,0.361,86
4,1,1,0.6,1.489,0.25,87
4,2,2,0.6,0.821,0.256,88
4,2,1,0.8,0.951,0.337,89
4,2,2,0.7,0.981,0.408,90
4,2,1,0.8,0.695,0.342,91
4,1,1,0.7,0.72,0.41,92
4,1,1,0.7,0.953,0.326,93
4,1,1,0.7,0.964,0.637,94
4,2,2,0.7,0.755,0.432,95
4,1,1,0.7,0.743,0.673,96
4,2,1,0.7,1.085,0.645,97
4,2,2,0.6,1.396,0.202,98
4,2,2,0.7,0.802,0.544,99
4,1,1,0.6,1.244,0.217,100
4,1,1,0.8,0.898,0.469,101
4,1,1,0.7,1.31,0.441,102
4,2,2,0.8,1.418,0.149,103
4,2,1,0.9,1.736,0.353,104
4,1,2,0.8,1.423,0.138,105
4,2,2,0.8,0.984,0.139,106
4,1,1,0.8,1.15,0.177,107
4,1,1,0.8,1.234,0.12,108
4,2,2,0.7,1.329,0.297,109
5,2,1,1,0.804,1.684,1
5,2,2,1,1.123,0.384,2
5,1,1,1,0.686,0.206,3
5,2,2,0.8,0.821,0.623,4
5,1,1,1,0.696,0.632,5
5,2,1,0.5,0.58,0.863,6
5,1,1,1,0.621,0.327,7
5,1,1,1,0.625,0.227,8
5,1,1,1,1.292,0.324,9
5,2,2,1,0.919,0.333,10
5,1,1,1,0.63,0.272,11
5,1,1,1,0.668,0.27,12
5,2,2,1,0.653,0.237,13
5,1,1,1,0.683,0.337,14
5,2,2,1,0.956,0.258,15
5,2,2,1,0.696,0.28,16
5,1,1,1,0.627,0.246,17
5,2,1,1,0.644,0.225,18
5,1,1,1,0.679,0.445,19
5,1,1,1,1.39,0.617,20
5,1,2,0.7,0.906,0.797,21
5,2,1,0.5,0.617,1.36,22
5,2,1,0.5,1.1,1.031,23
5,2,1,1,0.558,0.355,24
5,1,1,1,0.918,0.34,25
5,1,2,0.7,1.581,0.96,26
5,1,2,1,0.879,1.22,27
5,2,1,1,1.611,0.627,28
5,2,1,1,0.663,0.409,29
5,2,2,1,0.952,0.909,30
5,2,2,1,0.668,0.35,31
5,1,1,1,0.642,0.335,32
5,2,2,0.8,0.992,2.11,33
5,2,2,1,1.287,0.208,34
5,2,1,0.8,1.896,0.913,35
5,1,1,0.5,0.549,0.943,36
5,2,2,0.5,1.206,0.654,37
5,1,2,1,0.895,0.695,38
5,1,2,0.5,0.838,0.747,39
5,1,2,1,0.954,0.52,40
5,2,2,1,0.901,0.28,41
5,2,2,1,0.791,0.521,42
5,1,1,1,0.592,0.293,43
5,1,2,0.5,0.692,0.628,44
5,1,2,0.5,1.781,0.64,45
5,1,1,1,0.873,0.494,46
5,2,2,0.6,0.676,2.394,47
5,2,1,1,0.72,0.251,48
5,1,2,1,0.743,0.514,49
5,1,1,0.7,1.104,0.883,50
5,2,1,0.8,0.916,1.457,51
5,2,2,1,0.851,0.474,52
5,1,2,0.5,0.799,0.7,53
5,2,2,1,0.885,0.285,54
5,1,1,1,1.017,1.672,55
5,2,2,0.5,2.529,0.235,56
5,1,2,1,0.92,0.614,57
5,1,1,1,0.681,0.327,58
5,1,1,1,0.72,0.264,59
5,2,2,1,0.662,0.241,60
5,2,2,1,1.106,0.797,61
5,2,2,1,0.803,0.232,62
5,2,1,1,0.673,0.718,63
5,1,2,0.8,1.016,1.368,64
5,1,1,1,0.732,0.324,65
5,2,2,1,0.621,0.224,66
5,1,1,1,0.547,0.262,67
5,1,1,1,0.54,0.192,68
5,2,2,1,0.941,0.247,69
5,2,2,1,0.67,0.192,70
5,2,2,1,0.934,0.327,71
5,1,1,1,0.763,0.232,72
5,2,2,1,0.734,0.294,73
5,2,2,0.7,1.706,1.469,74
5,1,1,1,0.627,0.174,75
5,1,1,1,0.807,0.263,76
5,2,2,1,1.435,0.688,77
5,2,1,1,0.764,0.273,78
5,1,2,1,1.482,0.368,79
5,1,1,0.7,1.425,0.556,80
5,1,1,1,0.727,0.247,81
5,2,2,0.8,0.933,0.782,82
5,1,2,0.8,0.761,0.935,83
5,1,1,0.8,1.445,0.534,84
5,2,2,0.8,1.18,0.47,85
5,2,2,0.5,0.847,0.776,86
5,1,1,0.8,0.726,1.022,87
5,2,1,0.5,0.994,0.623,88
5,2,2,0.7,0.688,1.488,89
5,2,2,0.8,0.906,0.548,90
5,1,1,0.8,1.137,0.576,91
5,1,1,1,0.967,2.223,92
5,1,2,0.5,0.72,0.782,93
5,2,2,1,0.791,1.001,94
5,2,2,0.8,1.2,0.654,95
5,1,1,0.7,1.687,0.439,96
5,2,2,1,0.691,0.171,97
5,2,1,1,0.9,0.278,98
5,2,2,1,0.901,0.896,99
5,2,2,0.8,1.407,0.671,100
5,1,1,1,0.786,0.237,101
5,1,1,0.8,1.364,1.217,1
5,1,1,0.5,1.477,0.403,2
5,1,2,1,0.513,0.279,3
5,2,1,1,0.575,0.256,4
5,2,1,0.5,0.784,0.843,5
5,1,1,0.8,0.964,0.545,6
5,2,1,1,0.587,0.213,7
5,1,1,0.8,0.609,0.673,8
5,1,1,0.8,0.909,0.399,9
5,2,2,0.8,0.949,0.384,10
5,1,1,0.8,1.239,0.412,11
5,1,1,0.8,0.843,0.312,12
5,2,1,0.5,1.335,0.63,13
5,2,2,1,0.907,0.661,14
5,1,1,1,0.633,0.35,15
5,1,2,0.7,1.639,1.629,16
5,2,2,0.7,1.208,1.561,17
5,2,2,0.8,1.354,0.984,18
5,1,1,1,1.715,2.225,19
5,1,1,1,1.022,0.872,20
5,2,1,0.8,1.686,0.831,21
5,2,2,1,1.616,0.856,22
5,2,2,0.7,1.607,0.983,23
5,1,1,0.8,1.272,0.933,24
5,2,1,0.5,0.916,2.522,25
5,1,1,0.5,1.4,0.582,26
5,1,1,0.7,0.82,1.135,27
5,2,1,0.6,1.291,1.251,28
5,2,1,1,1.034,0.383,29
5,2,1,1,0.632,0.334,30
5,2,2,1,1.273,0.295,31
5,1,2,0.8,2.849,0.452,32
5,1,1,0.8,1.361,0.431,33
5,1,1,0.8,0.2,1.079,34
5,1,2,0.8,0.943,0.858,35
5,1,1,0.8,0.638,0.628,36
5,2,2,0.7,0.693,0.733,37
5,1,2,1,0.646,0.51,38
5,1,1,1,1.103,0.53,39
5,1,1,0.8,1.213,1.046,40
5,2,2,1,0.676,0.313,41
5,2,1,0.8,2.061,0.432,42
5,2,2,0.8,0.87,0.785,43
5,2,1,0.9,0.987,1.261,44
5,2,2,1,0.684,0.257,45
5,2,2,1,1.031,0.306,46
5,1,1,0.8,0.64,0.397,47
5,1,1,0.7,0.511,0.665,48
5,1,1,0.7,0.772,0.301,49
5,1,1,1,0.739,0.342,50
5,2,1,0.8,0.958,0.764,51
5,2,2,1,0.72,0.205,52
5,2,1,0.5,0.918,0.747,53
5,1,1,1,0.652,0.74,54
5,2,2,0.8,1.835,0.537,55
5,1,1,1,0.732,0.405,56
5,1,1,1,0.637,0.363,57
5,1,1,1,1.041,0.423,58
5,2,1,0.8,0.96,0.949,59
5,2,2,1,1.04,0.246,60
5,1,1,0.8,0.929,0.402,61
5,1,1,0.8,0.672,0.261,62
5,2,2,1,0.793,0.439,63
5,2,2,1,0.72,0.186,64
5,2,2,1,0.646,0.166,65
5,1,1,1,0.958,0.284,66
5,1,1,1,1.458,0.277,67
5,1,1,1,0.683,0.185,68
5,1,2,0.7,1.58,0.559,69
5,2,1,1,0.923,0.312,70
5,1,2,0.5,0.809,0.722,71
5,2,1,0.5,0.958,0.523,72
5,2,2,1,0.902,0.481,73
5,1,1,1,0.853,0.733,74
5,2,2,0.8,1.675,0.449,75
5,2,2,0.7,0.93,0.89,76
5,1,1,1,0.659,0.254,77
5,2,1,0.6,0.887,5.743,78
5,2,2,0.6,1.781,1.44,79
5,1,2,0.5,1.63,0.721,80
5,1,2,0.9,1.282,0.96,81
5,1,1,1,0.542,0.225,82
5,2,2,0.5,0.663,0.714,83
5,2,2,1,0.723,0.456,84
5,1,2,0.7,0.633,0.647,85
5,2,2,0.7,0.674,0.431,86
5,1,1,1,0.744,0.467,87
5,2,2,1,0.673,0.463,88
5,1,1,1,0.688,0.44,89
5,2,2,1,0.873,0.35,90
5,1,2,0.7,1.269,0.935,91
5,1,1,0.8,1.078,1.427,92
5,1,1,0.5,0.89,0.754,93
5,2,2,1,0.504,0.308,94
5,1,1,1,0.658,0.844,95
5,2,2,0.9,0.803,0.824,96
5,2,2,1,1.164,1.673,97
5,1,1,0.8,1.096,0.472,98
5,2,2,0.9,0.729,1.625,99
5,2,2,0.7,0.965,1.245,100
5,2,2,1,0.753,0.238,101
5,1,1,0.8,0.614,0.775,1
5,1,1,1,0.828,0.512,2
5,2,1,0.5,0.747,0.702,3
5,1,2,0.8,1.639,0.3,4
5,2,1,0.8,0.624,0.467,5
5,1,2,1,1.161,0.366,6
5,1,1,0.8,0.639,0.693,7
5,1,2,0.8,0.939,0.374,8
5,2,2,0.8,1.319,0.5,9
5,2,1,0.7,2.29,0.262,10
5,2,1,0.8,1.063,1.306,11
5,1,1,0.7,0.824,0.691,12
5,1,1,0.9,0.884,1.585,13
5,2,2,1,0.664,0.363,14
5,1,1,1,0.633,0.23,15
5,1,2,0.8,1.439,0.837,16
5,2,2,0.8,1.336,0.585,17
5,2,1,0.8,2.343,0.512,18
5,1,1,0.7,0.617,0.401,19
5,2,1,0.7,0.65,0.674,20
5,2,2,1,0.683,0.385,21
5,1,1,0.8,0.471,0.274,22
5,2,2,0.7,0.2,1.638,23
5,1,1,0.5,0.58,0.767,24
5,1,2,0.7,0.952,0.654,25
5,1,1,0.7,0.644,0.385,26
5,2,2,0.7,0.663,0.17,27
5,1,2,1,0.72,0.451,28
5,2,2,0.8,1.274,1.791,29
5,2,1,1,1.104,0.636,30
5,2,2,1,0.65,0.33,31
5,2,2,0.8,0.745,1.099,32
5,2,2,0.9,1.407,1.359,33
5,1,2,0.9,0.637,0.699,34
5,1,2,0.9,0.633,0.759,35
5,1,1,1,0.819,0.877,36
5,2,1,0.7,1.145,1.444,37
5,1,2,0.6,0.762,1.032,38
5,2,1,0.7,1.67,0.537,39
5,1,1,0.7,0.951,0.397,40
5,1,1,0.5,1.553,0.654,41
5,2,2,0.5,0.663,0.57,42
5,1,1,0.7,0.753,0.582,43
5,2,1,0.7,0.727,0.535,44
5,1,1,0.5,2.182,0.337,45
5,2,2,0.9,0.652,1.468,46
5,2,2,0.7,0.854,1.149,47
5,2,1,0.7,0.606,1.263,48
5,1,1,0.5,0.72,1.184,49
5,2,2,1,0.596,0.817,50
5,1,1,0.8,0.855,1.184,51
5,1,1,0.8,1.39,0.873,52
5,1,2,0.5,0.642,0.984,53
5,2,2,1,0.726,0.918,54
5,2,1,0.5,0.663,1.074,55
5,2,1,0.7,0.72,1.261,56
5,2,2,0.6,0.805,1.116,57
5,2,2,0.7,0.602,1.16,58
5,1,1,1,0.641,0.918,59
5,1,1,0.9,0.672,1.229,60
5,1,1,1,0.7,0.902,61
5,1,2,0.9,0.754,0.92,62
5,1,1,0.9,0.63,1.097,63
5,1,2,0.8,0.549,0.847,64
5,1,2,0.9,0.851,1.075,65
5,2,1,0.8,0.599,1.332,66
5,2,2,0.7,0.72,1.243,67
5,2,1,0.5,0.65,0.793,68
5,2,1,0.6,0.789,0.848,69
5,1,1,0.6,0.836,1.033,70
5,1,1,1,0.986,0.837,71
5,2,2,0.6,0.68,1.454,72
5,1,1,0.8,0.631,1.242,73
5,1,2,0.8,1.56,6.83,74
5,2,1,0.6,1.27,2.329,75
5,1,1,0.8,0.726,1.478,76
5,2,2,0.9,0.733,0.733,77
5,2,1,0.9,0.747,0.837,78
5,1,2,0.5,0.601,1.199,79
5,1,1,0.7,0.728,1.112,80
5,1,1,0.7,0.668,0.679,81
5,2,1,0.7,0.797,0.803,82
5,1,1,0.6,1.886,0.359,83
5,2,2,0.7,0.746,0.461,84
5,2,1,0.6,0.622,0.504,85
5,2,1,0.6,0.668,0.335,86
5,2,1,0.6,0.72,0.354,87
5,1,1,0.9,0.736,1.144,88
5,1,1,0.8,1.33,1.498,89
5,1,1,0.8,0.96,0.662,90
5,2,2,0.9,1.111,0.794,91
5,1,1,0.8,1.205,0.822,92
5,2,2,0.9,0.927,0.919,93
5,2,1,0.7,2.41,0.649,94
5,2,1,0.7,1.607,0.351,95
5,1,1,1,1.246,0.454,96
5,2,1,0.8,1.559,0.917,97
5,2,1,0.8,1.603,0.657,98
5,1,2,0.5,0.634,1.208,99
5,2,2,0.7,0.67,0.817,100
5,1,2,0.8,0.909,0.503,101
5,1,1,0.9,0.735,0.815,1
5,2,2,0.7,0.638,0.994,2
5,1,1,0.7,0.964,0.844,3
5,2,1,0.7,0.616,0.992,4
5,1,1,0.7,0.568,0.825,5
5,2,2,0.7,0.695,0.255,6
5,1,1,0.7,0.549,0.183,7
5,2,2,0.7,0.518,0.195,8
5,1,1,0.7,0.588,0.263,9
5,1,1,0.8,0.781,0.719,10
5,2,2,0.8,0.731,0.795,11
5,2,2,0.8,0.615,0.623,12
5,2,1,0.7,0.805,0.846,13
5,2,2,0.7,0.945,0.54,14
5,1,2,0.8,0.947,1.061,15
5,1,1,0.9,0.593,0.942,16
5,1,1,0.6,0.693,1.277,17
5,2,2,0.9,0.683,0.729,18
5,1,1,0.5,1.053,0.941,19
5,2,2,0.9,0.795,0.921,20
5,2,1,0.7,1.556,1.37,21
5,1,1,0.8,0.926,0.75,22
5,1,1,0.6,0.645,1.394,23
5,2,2,0.9,0.729,0.553,24
5,1,2,0.5,0.72,0.799,25
5,1,1,1,0.624,0.922,26
5,2,2,0.7,0.969,1.897,27
5,2,2,1,0.571,0.594,28
5,2,1,0.9,0.929,1.089,29
5,1,2,0.8,1.727,0.96,30
5,1,1,1,0.788,0.487,31
5,2,1,0.9,0.72,0.562,32
5,1,2,0.5,0.747,1.118,33
5,1,1,0.8,0.647,1.647,34
5,1,2,0.9,0.632,0.67,35
5,1,1,0.8,0.682,0.879,36
5,1,2,0.5,0.773,0.798,37
5,2,2,1,0.825,0.724,38
5,2,2,1,0.559,0.565,39
5,2,2,1,0.556,0.744,40
5,2,1,0.8,0.72,1.194,41
5,2,1,0.9,0.736,0.792,42
5,1,1,0.7,0.636,3.161,43
5,2,2,0.8,0.67,0.305,44
5,1,1,1,0.569,0.538,45
5,2,2,1,0.616,0.224,46
5,1,1,0.7,0.606,0.615,47
5,2,2,1,0.618,0.21,48
5,1,1,0.8,0.939,0.35,49
5,2,1,0.6,0.676,0.537,50
5,1,1,0.5,0.677,0.626,51
5,2,2,0.8,0.798,0.627,52
5,2,2,0.8,0.741,0.623,53
5,1,1,0.5,0.648,0.88,54
5,1,2,0.5,0.72,0.695,55
5,2,2,0.5,0.731,0.491,56
5,1,1,0.7,0.756,0.273,57
5,1,2,0.9,0.583,0.409,58
5,2,1,0.5,0.656,0.688,59
5,2,2,1,0.614,0.758,60
5,2,2,0.7,0.94,1.328,61
5,1,1,0.6,1.08,0.494,62
5,2,2,0.7,0.852,0.396,63
5,1,1,1,0.552,0.726,64
5,1,2,0.7,1.567,0.479,65
5,2,2,1,0.843,0.208,66
5,1,1,1,1.246,0.23,67
5,2,2,1,1.162,0.216,68
5,2,2,1,1.211,0.123,69
5,2,1,0.8,1.649,0.21,70
5,1,1,0.5,0.738,1.133,71
5,1,1,1,0.761,0.295,72
5,1,1,1,0.733,0.157,73
5,2,2,1,0.653,0.206,74
5,1,2,1,1.115,0.169,75
5,1,2,0.9,1.034,0.415,76
5,2,2,0.9,0.784,0.547,77
5,2,2,0.9,1.385,0.492,78
5,1,1,0.6,0.792,0.173,79
5,1,1,0.6,0.659,0.222,80
5,2,2,0.6,0.724,0.442,81
5,2,1,0.6,1.109,0.241,82
5,2,2,1,0.607,0.463,83
5,2,2,1,0.618,0.173,84
5,1,1,0.6,0.568,0.281,85
5,1,2,1,0.759,0.252,86
5,1,2,1,0.773,0.189,87
5,1,1,1,0.59,0.264,88
5,2,2,1,0.617,0.177,89
5,2,1,0.6,1.565,0.213,90
5,1,2,0.5,0.638,0.875,91
5,1,1,0.8,0.847,0.495,92
5,2,2,0.8,0.723,0.552,93
5,1,1,0.8,0.667,0.302,94
5,1,1,0.8,0.658,0.277,95
5,2,2,1,0.72,0.169,96
5,2,1,0.6,0.964,0.321,97
5,2,1,0.6,0.794,0.576,98
5,1,1,1,0.857,0.401,99
5,2,2,1,0.628,0.199,100
5,1,1,0.8,1.051,0.452,1
5,1,1,1,0.783,0.642,2
5,2,2,0.7,1.453,0.39,3
5,1,2,0.7,1.236,0.37,4
5,2,2,0.7,0.619,0.381,5
5,1,2,0.7,0.609,0.537,6
5,2,1,1,0.97,0.378,7
5,1,1,0.9,0.67,0.32,8
5,2,2,0.9,0.734,0.399,9
5,1,1,0.7,0.658,0.381,10
5,1,1,0.5,0.894,0.542,11
5,2,2,1,0.72,0.554,12
5,2,1,1,0.68,0.542,13
5,1,2,0.5,0.772,0.908,14
5,2,1,0.7,0.648,0.504,15
5,1,2,0.9,0.72,0.457,16
5,1,1,0.6,0.815,0.367,17
5,2,2,0.9,0.675,0.312,18
5,2,2,1,0.72,0.284,19
5,2,1,0.7,0.695,0.32,20
5,1,2,0.9,0.494,0.95,21
5,2,2,0.7,0.938,0.361,22
5,1,1,0.6,0.696,0.472,23
5,2,1,0.7,0.72,0.428,24
5,1,1,0.8,0.618,0.714,25
5,1,2,0.8,0.672,0.398,26
5,1,2,0.9,1.033,0.23,27
5,2,2,1,0.65,0.618,28
5,2,2,1,0.667,0.318,29
5,1,2,1,1.668,0.479,30
5,1,1,0.5,0.739,1.126,31
5,2,2,1,0.761,0.511,32
5,1,1,0.9,0.655,0.624,33
5,2,2,0.8,0.801,0.758,34
5,2,2,0.9,0.626,1.228,35
5,1,2,0.9,0.627,0.694,36
5,2,2,0.9,0.868,0.751,37
5,2,2,0.8,0.794,0.64,38
5,1,1,0.8,0.577,0.748,39
5,2,2,0.9,0.427,5.805,40
5,1,1,1,0.663,0.938,41
5,1,1,0.7,0.54,0.382,42
5,2,1,0.8,0.993,0.359,43
5,2,2,0.7,0.611,0.299,44
5,1,1,0.7,0.599,0.356,45
5,2,2,0.9,0.671,0.77,46
5,1,2,1,0.68,0.622,47
5,2,2,1,0.657,0.474,48
5,2,1,1,0.747,0.605,49
5,1,1,1,0.86,0.374,50
5,2,2,1,0.728,0.48,51
5,1,1,1,1.065,0.467,52
5,1,1,0.9,0.684,0.377,53
5,1,1,0.8,0.723,0.528,54
5,1,2,0.7,0.812,0.316,55
5,1,1,0.8,0.658,0.733,56
5,2,2,0.9,0.739,0.83,57
5,2,1,1,1.183,0.402,58
5,2,2,0.8,0.648,0.624,59
5,1,1,1,0.623,0.569,60
5,2,2,0.9,0.732,0.62,61
5,2,2,1,0.534,0.342,62
5,2,2,0.5,1.689,0.354,63
5,1,2,0.7,0.544,0.514,64
5,2,1,0.5,0.627,0.878,65
5,1,2,0.5,0.586,0.717,66
5,1,2,0.5,0.72,0.651,67
5,2,2,0.9,0.615,0.623,68
5,1,1,0.8,0.619,0.613,69
5,2,1,0.8,0.636,0.513,70
5,1,2,0.5,0.652,0.781,71
5,2,2,0.7,0.67,0.457,72
5,1,1,1,0.876,0.698,73
5,1,2,0.9,0.769,0.48,74
5,1,2,0.9,0.652,0.452,75
5,2,2,0.9,0.741,0.336,76
5,2,2,0.9,0.63,0.233,77
5,2,1,0.8,0.767,0.503,78
5,1,2,0.7,0.592,0.525,79
5,1,1,0.9,0.587,0.558,80
5,1,1,0.9,0.72,0.695,81
5,2,2,0.9,0.928,0.465,82
5,2,2,0.9,0.684,0.305,83
5,2,2,1,0.65,0.434,84
5,1,1,1,0.812,0.651,85
5,2,2,0.9,0.617,0.425,86
5,2,2,0.9,0.607,0.208,87
5,1,1,0.8,0.646,0.526,88
5,1,1,0.8,0.671,0.537,89
5,1,2,0.8,0.978,0.405,90
5,1,2,0.9,0.758,0.195,91
5,2,1,0.9,0.615,0.175,92
5,2,2,0.9,0.616,0.32,93
5,1,1,1,0.689,0.497,94
5,2,2,1,0.61,0.202,95
5,2,2,1,0.624,0.123,96
5,1,1,1,0.652,0.156,97
5,2,1,1,0.956,0.234,98
5,1,2,1,0.725,0.197,99
5,2,2,0.5,0.94,1.047,100
5,1,2,0.6,0.795,1.08,101
5,1,1,1,1.039,0.3,102
5,1,2,0.8,0.925,0.301,103
5,2,2,0.8,0.72,0.526,104
5,2,1,0.8,0.727,0.367,105
5,2,2,1,0.613,0.205,106
5,2,1,0.8,0.691,0.212,107
5,1,2,1,0.594,0.223,108
5,1,1,0.8,0.541,0.192,109
6,2,1,1,0.806,0.798,1
6,2,2,1,0.72,0.37,2
6,2,2,0.8,1.011,0.843,3
6,1,1,1,0.826,0.317,4
6,1,1,0.9,0.787,0.798,5
6,2,1,0.9,1.113,0.399,6
6,1,2,0.9,0.978,0.421,7
6,1,2,1,1.203,0.377,8
6,2,1,0.7,1.071,1.357,9
6,2,2,1,0.875,0.577,10
6,1,2,1,1.082,0.375,11
6,1,2,0.9,1.163,0.488,12
6,2,1,0.7,1.548,1.199,13
6,1,1,1,0.798,0.403,14
6,1,1,1,0.743,0.362,15
6,2,2,1,0.653,0.389,16
6,1,1,0.7,0.784,1.691,17
6,1,1,1,1.096,0.615,18
6,2,2,1,0.854,0.526,19
6,2,2,0.9,0.82,0.655,20
6,2,2,1,1.022,0.632,21
6,1,1,0.8,1.073,0.799,22
6,1,2,0.7,1.08,0.917,23
6,2,1,0.8,0.881,1.102,24
6,1,1,0.9,0.818,1.205,25
6,2,2,0.9,1.047,0.479,26
6,1,2,1,1.024,0.563,27
6,2,2,1,0.977,0.433,28
6,1,2,1,0.901,0.448,29
6,2,2,1,0.926,0.502,30
6,1,1,0.9,1.516,0.786,31
6,2,1,0.9,1.432,0.63,32
6,1,2,0.9,1.173,0.516,33
6,1,2,0.9,0.827,0.613,34
6,1,1,1,1.842,0.703,35
6,2,1,0.6,1.16,1.15,36
6,2,1,0.9,0.772,0.716,37
6,2,2,0.9,0.909,0.696,38
6,2,2,1,0.871,0.521,39
6,1,2,0.7,1.082,1.047,40
6,2,2,0.7,1.513,0.847,41
6,1,1,1,0.882,0.856,42
6,1,1,0.5,2.809,1.722,43
6,1,1,0.7,0.928,1.032,44
6,2,2,0.8,0.962,0.919,45
6,2,1,0.7,0.771,0.995,46
6,2,1,0.5,0.772,1.236,47
6,1,1,0.8,0.693,1.045,48
6,2,2,0.8,1.159,0.764,49
6,1,1,1,0.605,0.586,50
6,1,1,1,0.611,0.411,51
6,2,1,0.7,0.756,0.801,52
6,2,2,1,1.093,0.477,53
6,1,1,1,0.72,0.636,54
6,2,2,1,0.692,0.461,55
6,1,1,0.9,0.661,0.705,56
6,1,1,1,0.692,0.404,57
6,1,2,0.7,0.723,0.888,58
6,1,2,1,0.649,0.457,59
6,2,2,1,0.743,0.402,60
6,2,2,1,0.68,0.286,61
6,2,2,1,0.583,0.281,62
6,2,2,0.7,0.757,0.97,63
6,1,1,0.9,0.801,0.718,64
6,2,2,0.9,0.648,0.375,65
6,1,1,0.9,0.733,0.502,66
6,1,1,0.9,1.106,0.78,67
6,2,2,1,0.587,0.469,68
6,1,1,0.9,0.769,0.745,69
6,1,2,0.9,0.855,0.423,70
6,2,1,0.8,0.593,0.55,71
6,2,2,0.8,0.649,0.713,72
6,1,2,0.8,0.768,0.944,73
6,2,1,0.9,0.807,0.735,74
6,2,1,0.8,0.72,0.845,75
6,2,1,0.8,0.793,0.799,76
6,2,2,0.9,0.72,0.949,77
6,1,1,0.8,0.82,1.11,78
6,1,1,0.8,0.728,0.672,79
6,1,2,0.9,0.662,1.009,80
6,1,2,1,0.863,0.738,81
6,2,2,1,0.836,0.505,82
6,1,1,1,0.549,0.447,83
6,2,2,1,0.845,0.501,84
6,1,2,1,0.572,0.34,85
6,1,1,1,0.749,0.591,86
6,2,1,0.9,0.646,0.47,87
6,2,2,1,0.814,0.535,88
6,2,1,1,0.611,0.627,89
6,1,2,0.7,0.75,0.897,90
6,2,2,0.9,0.568,1.639,91
6,2,2,0.9,0.691,0.908,92
6,1,1,0.7,0.751,1.442,93
6,1,2,0.7,0.58,1.014,94
6,2,2,1,0.647,0.615,95
6,1,1,0.8,0.766,0.958,96
6,2,2,1,0.594,0.831,97
6,1,1,0.8,0.72,0.901,98
6,2,1,1,0.724,0.649,99
6,1,2,0.9,0.485,1.134,100
6,2,2,1,0.505,0.46,101
6,1,2,0.8,0.723,1.032,1
6,1,1,0.8,0.679,0.62,2
6,2,2,0.9,0.544,0.531,3
6,1,1,0.9,0.636,0.609,4
6,2,1,0.8,0.797,0.745,5
6,2,2,0.9,0.958,0.652,6
6,1,2,0.7,0.871,0.85,7
6,1,1,0.9,0.67,0.768,8
6,2,2,1,0.607,0.471,9
6,1,1,1,0.584,0.41,10
6,2,2,1,0.633,0.438,11
6,2,2,0.8,0.943,1.978,12
6,2,2,1,0.592,0.462,13
6,2,1,0.8,0.807,0.751,14
6,1,1,0.8,0.72,0.678,15
6,1,1,0.6,0.625,0.892,16
6,2,2,0.9,0.658,0.821,17
6,1,2,0.9,0.777,0.729,18
6,1,2,0.7,0.65,1.306,19
6,1,1,0.8,0.676,0.777,20
6,1,1,0.9,0.637,0.818,21
6,2,2,1,0.616,0.488,22
6,2,2,1,0.61,0.345,23
6,1,2,1,0.581,0.279,24
6,1,2,0.8,0.827,1.269,25
6,2,2,0.8,0.573,1.3,26
6,2,2,0.9,0.563,0.624,27
6,1,2,0.7,0.654,0.831,28
6,2,2,0.8,0.888,1.32,29
6,2,1,0.8,1.134,1.03,30
6,1,2,0.6,0.658,1.709,31
6,2,2,0.9,0.737,0.969,32
6,1,1,0.9,0.682,0.656,33
6,1,2,1,1.177,0.833,34
6,2,2,0.9,0.65,1.434,35
6,2,1,0.7,0.808,1.056,36
6,1,1,1,0.583,0.554,37
6,1,1,0.9,0.825,0.931,38
6,2,1,0.8,0.777,1.145,39
6,1,2,1,0.872,0.725,40
6,2,2,1,0.81,0.634,41
6,2,2,1,0.895,0.464,42
6,1,1,1,0.657,0.457,43
6,2,1,0.7,0.818,0.778,44
6,2,2,0.9,0.725,1.181,45
6,1,1,1,0.86,0.711,46
6,2,2,1,0.723,0.504,47
6,2,2,1,0.932,0.532,48
6,1,2,1,0.781,0.248,49
6,1,2,0.8,0.894,0.678,50
6,1,1,1,0.692,0.501,51
6,1,2,0.8,0.848,0.648,52
6,2,2,0.8,0.913,0.663,53
6,2,2,1,0.928,0.632,54
6,2,1,1,0.697,0.417,55
6,1,1,0.8,0.669,0.944,56
6,1,1,0.9,0.625,1.323,57
6,1,1,0.8,0.72,0.826,58
6,2,1,0.8,1.03,0.393,59
6,1,1,1,0.77,0.602,60
6,1,1,0.8,0.754,0.816,61
6,2,2,1,0.58,0.422,62
6,2,2,1,0.72,0.309,63
6,2,2,1,0.761,0.246,64
6,1,1,0.6,0.769,1.225,65
6,1,1,1,0.622,0.368,66
6,2,2,1,0.681,0.302,67
6,1,1,1,0.68,0.461,68
6,2,2,0.6,0.753,1.262,69
6,2,2,1,0.568,0.359,70
6,1,1,0.9,0.626,0.789,71
6,2,2,1,0.55,0.985,72
6,2,2,1,0.632,0.301,73
6,1,2,1,0.684,0.347,74
6,1,1,0.9,0.853,0.66,75
6,2,2,1,0.693,0.349,76
6,2,2,1,0.615,0.263,77
6,1,1,0.7,1.155,1.032,78
6,2,2,0.8,0.614,0.846,79
6,1,2,0.9,0.544,0.754,80
6,2,2,1,0.544,0.34,81
6,1,2,0.5,0.645,1.204,82
6,1,2,0.8,0.577,2.512,83
6,1,1,0.9,0.887,0.727,84
6,2,2,1,0.54,0.478,85
6,2,2,1,0.546,2.292,86
6,1,2,0.7,0.581,1.176,87
6,2,1,0.7,0.783,0.842,88
6,1,1,1,0.664,0.571,89
6,2,2,1,0.806,0.646,90
6,1,1,1,0.677,0.387,91
6,1,1,0.5,0.825,0.947,92
6,1,2,1,0.746,0.461,93
6,2,2,1,0.656,0.393,94
6,1,2,0.9,0.98,0.655,95
6,2,2,1,0.72,0.378,96
6,2,2,1,1.068,0.398,97
6,2,1,0.6,0.684,1.109,98
6,1,1,1,0.689,0.489,99
6,1,2,0.6,0.602,1.351,100
6,1,1,0.6,0.72,0.693,101
6,2,2,0.8,0.743,1.058,1
6,1,1,0.8,0.841,0.95,2
6,2,2,1,0.584,0.754,3
6,2,2,1,0.6,0.326,4
6,2,1,1,0.652,0.868,5
6,1,1,0.8,0.557,0.778,6
6,1,1,0.9,0.667,0.582,7
6,2,2,1,0.778,0.402,8
6,2,1,0.9,1.429,3.512,9
6,1,2,1,0.784,0.522,10
6,2,1,0.8,0.734,1.134,11
6,1,2,0.9,1.114,0.847,12
6,2,2,1,0.526,0.374,13
6,1,2,0.6,0.962,1.415,14
6,1,2,0.9,0.638,1.123,15
6,2,2,1,0.575,0.343,16
6,2,2,1,0.667,0.461,17
6,1,1,0.7,0.889,2.177,18
6,1,2,1,1.045,0.734,19
6,1,2,0.9,0.817,1.305,20
6,2,2,0.9,0.696,0.504,21
6,2,2,1,0.606,0.487,22
6,2,2,0.9,0.72,0.89,23
6,2,2,0.9,0.552,0.574,24
6,1,2,0.9,0.78,0.679,25
6,1,2,0.9,0.8,0.501,26
6,1,1,1,0.662,0.745,27
6,2,1,0.5,0.86,1.183,28
6,2,2,0.9,0.606,1.734,29
6,1,1,0.8,0.805,2.253,30
6,1,2,0.9,0.825,1.34,31
6,2,2,1,0.962,0.536,32
6,2,1,0.9,0.777,0.985,33
6,1,2,1,0.917,0.499,34
6,1,1,1,0.641,0.71,35
6,1,2,1,0.893,0.645,36
6,2,2,1,0.829,0.403,37
6,2,1,1,0.604,0.522,38
6,1,2,1,0.744,0.402,39
6,2,2,1,0.587,0.23,40
6,1,1,1,0.983,0.49,41
6,1,2,1,0.774,0.349,42
6,2,2,1,0.72,0.331,43
6,1,2,1,0.739,0.253,44
6,2,2,1,0.779,0.206,45
6,2,2,1,0.673,0.463,46
6,2,1,1,0.6,0.269,47
6,2,1,1,0.84,0.238,48
6,1,1,1,0.778,0.301,49
6,1,2,1,1.773,1.318,50
6,2,1,0.6,0.809,1.249,51
6,1,1,1,0.696,0.48,52
6,1,2,0.6,0.628,1.143,53
6,2,2,1,0.923,0.488,54
6,2,1,1,0.855,0.455,55
6,1,2,1,0.852,0.429,56
6,1,1,1,0.846,0.422,57
6,2,2,1,0.612,0.3,58
6,2,1,0.9,0.77,0.907,59
6,1,1,0.9,0.782,0.609,60
6,1,1,0.8,0.852,1.037,61
6,2,2,1,0.87,0.753,62
6,2,2,1,0.789,0.575,63
6,1,1,0.9,0.873,0.75,64
6,1,1,0.9,0.801,0.431,65
6,2,2,0.9,0.765,0.805,66
6,1,2,0.6,1.995,2.321,67
6,2,2,0.9,0.627,1.069,68
6,2,2,0.9,0.775,0.655,69
6,1,1,1,0.64,1.101,70
6,2,1,0.7,0.833,0.943,71
6,1,1,0.8,0.799,1.029,72
6,2,2,0.9,0.569,0.673,73
6,1,2,0.9,0.871,0.605,74
6,1,1,0.8,0.942,0.729,75
6,2,1,0.7,0.802,0.791,76
6,2,1,0.8,0.758,0.715,77
6,1,1,0.9,0.72,0.551,78
6,2,2,1,0.683,0.488,79
6,2,1,1,0.721,0.462,80
6,1,1,0.8,0.695,0.783,81
6,1,1,0.9,0.861,0.736,82
6,2,1,0.8,0.786,0.764,83
6,1,1,0.6,0.797,1.059,84
6,2,1,0.7,0.692,1.068,85
6,1,1,0.9,0.72,0.632,86
6,2,2,0.7,0.777,1.369,87
6,1,2,0.8,1.031,0.813,88
6,1,1,1,0.734,0.918,89
6,2,2,1,0.812,0.516,90
6,2,1,1,0.645,0.445,91
6,2,2,1,0.809,0.393,92
6,1,2,1,0.859,0.325,93
6,1,1,1,0.678,0.363,94
6,2,1,1,0.735,0.423,95
6,2,1,0.9,0.986,0.733,96
6,2,1,0.7,0.881,0.943,97
6,1,2,0.9,0.888,0.624,98
6,1,2,1,1.052,0.356,99
6,1,1,0.7,0.661,1.256,100
6,1,1,0.8,0.72,0.774,101
6,2,1,0.8,0.737,0.985,1
6,1,2,0.7,0.637,1.026,2
6,1,1,0.8,1.112,0.838,3
6,1,2,0.9,0.658,0.562,4
6,1,1,1,0.645,0.294,5
6,2,2,1,0.761,0.447,6
6,2,2,1,0.912,0.381,7
6,2,2,1,0.726,0.246,8
6,2,2,1,0.799,0.276,9
6,1,1,1,0.979,0.438,10
6,2,2,1,0.682,0.222,11
6,1,1,0.9,1.147,0.581,12
6,2,1,0.8,0.971,0.74,13
6,2,2,0.9,0.81,0.77,14
6,1,2,0.9,0.667,0.661,15
6,2,2,1,0.697,0.249,16
6,1,2,1,0.685,0.245,17
6,1,1,1,0.72,0.441,18
6,1,2,1,0.673,0.271,19
6,1,2,1,0.883,0.655,20
6,1,2,1,0.726,0.47,21
6,2,2,1,0.682,0.231,22
6,2,1,0.6,0.965,1.181,23
6,2,1,0.9,0.916,1.193,24
6,2,1,0.8,1.389,0.832,25
6,2,1,0.8,1.049,0.409,26
6,2,1,0.7,0.843,0.864,27
6,2,2,1,0.654,0.895,28
6,1,1,1,0.653,0.461,29
6,1,2,1,0.686,0.286,30
6,1,1,0.9,0.754,0.679,31
6,1,1,0.9,1.24,0.51,32
6,2,1,0.7,0.953,1.398,33
6,1,1,0.8,0.744,1.019,34
6,1,2,0.9,0.956,1.066,35
6,2,2,1,1.272,0.541,36
6,2,2,1,1.094,0.487,37
6,2,2,1,1.197,0.347,38
6,2,2,1,0.959,0.3,39
6,1,1,0.9,1.042,0.528,40
6,1,1,0.9,1.26,0.438,41
6,1,1,1,0.933,0.381,42
6,1,1,0.7,0.902,0.792,43
6,2,2,1,0.72,0.631,44
6,1,1,1,1.222,0.424,45
6,2,2,1,1.044,0.41,46
6,2,2,0.9,1.122,0.52,47
6,2,2,1,0.956,0.393,48
6,1,1,0.9,0.731,0.579,49
6,1,1,0.8,0.771,0.715,50
6,2,2,1,0.72,0.298,51
6,1,1,0.8,0.619,0.782,52
6,2,2,0.9,0.631,0.466,53
6,1,1,0.9,1.466,0.462,54
6,2,2,0.9,1.052,0.492,55
6,2,2,1,0.723,0.312,56
6,1,1,0.9,1.27,0.657,57
6,2,2,1,0.872,0.501,58
6,2,2,1,1.033,0.374,59
6,2,2,0.7,1.146,0.868,60
6,1,1,0.8,0.899,0.854,61
6,1,2,0.8,1.13,0.514,62
6,2,2,0.8,0.888,0.52,63
6,1,2,0.7,1.043,0.673,64
6,1,1,0.9,1.264,0.923,65
6,2,2,1,0.854,0.406,66
6,2,2,0.8,1.154,0.6,67
6,2,1,0.9,0.801,0.582,68
6,1,2,0.9,0.932,0.461,69
6,1,1,1,1.022,0.369,70
6,2,2,0.9,1.26,0.471,71
6,1,2,0.8,1.227,0.654,72
6,1,2,1,1.02,0.343,73
6,2,2,1,0.72,0.237,74
6,1,2,0.7,0.838,0.82,75
6,1,1,1,0.884,0.426,76
6,1,1,1,0.811,0.563,77
6,2,2,1,0.644,0.353,78
6,2,1,1,0.72,0.391,79
6,1,2,0.9,0.837,0.475,80
6,2,2,1,0.804,0.361,81
6,1,2,1,0.642,0.312,82
6,2,2,1,0.75,0.512,83
6,1,1,1,0.748,0.295,84
6,2,2,1,0.699,0.237,85
6,1,1,1,0.985,0.492,86
6,2,2,1,0.951,0.213,87
6,1,1,1,0.779,0.302,88
6,2,2,1,0.775,0.359,89
6,2,2,1,0.819,0.189,90
6,2,2,1,0.838,0.164,91
6,1,1,0.9,0.74,0.503,92
6,2,2,0.9,0.992,0.542,93
6,1,1,0.8,1.029,0.535,94
6,2,2,0.9,0.874,0.512,95
6,1,2,0.9,0.694,0.488,96
6,1,2,0.9,0.682,0.448,97
6,2,1,1,0.779,0.39,98
6,1,2,0.7,0.809,1.018,99
6,2,2,1,0.589,0.584,100
6,1,1,1,0.727,0.975,1
6,2,2,1,3.582,1.034,2
6,1,1,1,0.741,0.392,3
6,2,2,1,0.574,0.238,4
6,1,1,0.7,0.682,0.983,5
6,1,2,0.7,0.693,1.086,6
6,2,2,1,0.617,0.282,7
6,2,2,1,0.634,0.296,8
6,1,1,0.8,0.659,0.87,9
6,1,2,0.9,1.007,0.463,10
6,1,1,0.7,0.824,0.995,11
6,2,2,1,0.812,0.516,12
6,2,1,0.7,0.824,1.307,13
6,2,1,0.8,0.94,0.791,14
6,1,2,1,0.679,0.453,15
6,2,2,1,0.91,0.337,16
6,2,2,1,1.031,0.29,17
6,1,1,0.9,0.755,0.6,18
6,2,2,0.9,0.658,0.401,19
6,1,2,0.9,0.68,0.533,20
6,1,1,1,0.723,0.377,21
6,2,2,1,0.72,0.543,22
6,2,2,0.8,0.83,0.673,23
6,1,1,0.8,0.729,0.53,24
6,1,1,0.9,0.742,0.76,25
6,2,2,1,0.7,0.398,26
6,1,2,0.9,0.935,0.447,27
6,2,2,0.9,0.678,0.475,28
6,1,1,1,0.583,0.394,29
6,2,2,0.9,0.621,0.64,30
6,1,1,1,0.667,0.302,31
6,2,2,0.9,0.668,0.815,32
6,1,1,1,0.8,0.405,33
6,1,1,0.7,1.118,1.164,34
6,2,2,1,0.606,0.269,35
6,1,1,1,0.72,0.331,36
6,2,2,0.9,0.669,0.751,37
6,2,1,0.6,0.688,1.025,38
6,1,2,0.9,0.596,1.346,39
6,1,2,1,0.579,0.31,40
6,1,2,0.8,0.72,1.068,41
6,2,1,0.9,0.736,0.664,42
6,2,2,1,0.748,0.775,43
6,1,2,0.6,0.615,1.168,44
6,2,1,0.8,0.838,1.476,45
6,2,1,0.5,0.746,1.125,46
6,2,2,0.9,1.47,0.913,47
6,1,2,0.9,0.885,0.429,48
6,2,2,0.9,0.651,0.604,49
6,1,1,0.9,0.658,1.866,50
6,1,2,0.9,0.657,0.897,51
6,2,2,0.9,0.618,0.61,52
6,1,1,1,0.654,0.55,53
6,1,2,0.8,0.649,1.793,54
6,1,1,1,1.01,0.602,55
6,1,1,1,0.611,0.468,56
6,2,2,1,0.786,0.452,57
6,2,1,0.7,0.651,1.475,58
6,1,2,0.8,0.732,0.924,59
6,2,2,0.9,0.645,0.541,60
6,2,2,1,0.596,0.313,61
6,1,1,1,0.768,0.384,62
6,2,1,0.8,0.731,1.267,63
6,2,2,1,0.647,0.471,64
6,1,1,0.9,0.734,0.726,65
6,2,2,1,0.692,0.244,66
6,2,2,1,0.623,0.226,67
6,1,1,1,0.669,0.432,68
6,1,1,0.8,0.642,0.774,69
6,1,2,0.8,0.523,0.744,70
6,2,2,1,0.848,0.385,71
6,2,2,0.8,0.56,0.805,72
6,1,1,0.7,0.741,1.225,73
6,1,1,0.9,0.626,0.532,74
6,1,2,1,0.858,0.493,75
6,2,2,1,0.827,0.423,76
6,2,1,1,0.72,0.378,77
6,2,1,1,0.755,0.408,78
6,1,1,0.7,0.661,0.951,79
6,1,2,0.8,0.771,0.971,80
6,2,2,1,0.761,0.415,81
6,1,2,1,0.775,0.319,82
6,2,2,1,1.101,0.289,83
6,1,1,1,0.882,0.39,84
6,2,1,0.5,0.749,1.464,85
6,2,2,1,0.558,0.395,86
6,2,2,1,0.781,0.367,87
6,1,2,1,0.72,0.251,88
6,2,2,1,0.906,0.428,89
6,1,1,0.9,0.581,0.519,90
6,1,2,0.9,0.796,0.44,91
6,1,1,0.9,0.801,0.495,92
6,2,2,1,0.693,0.373,93
6,2,2,0.8,0.841,0.623,94
6,1,1,0.9,0.72,0.892,95
6,2,2,1,0.92,0.429,96
6,1,1,1,0.774,0.51,97
6,2,2,0.9,0.573,0.517,98
6,1,1,0.9,0.728,0.633,99
6,1,1,0.9,0.801,0.751,100
6,2,1,0.8,0.721,0.902,101
6,2,2,1,0.602,0.335,102
6,1,1,0.8,0.506,1.333,103
6,1,1,0.9,0.684,0.817,104
6,2,2,1,0.568,0.4,105
6,1,1,0.9,0.614,0.478,106
6,1,1,0.9,0.674,0.736,107
6,2,1,1,0.936,0.496,108
6,2,2,1,0.72,0.287,109
7,2,2,0.9,0.624,1.184,1
7,1,1,0.8,0.876,1.489,2
7,2,2,1,0.923,0.917,3
7,1,1,0.8,0.745,1.124,4
7,2,2,0.9,0.728,1.509,5
7,1,1,0.8,0.642,1.262,6
7,2,1,0.7,0.721,0.797,7
7,1,2,0.8,0.612,0.913,8
7,2,2,0.9,0.653,0.716,9
7,1,1,0.8,0.699,0.933,10
7,1,2,0.8,0.72,0.447,11
7,2,1,0.7,0.562,0.592,12
7,2,2,0.8,0.737,0.51,13
7,1,1,0.7,0.645,0.375,14
7,1,1,0.7,0.624,0.49,15
7,2,1,0.7,0.72,0.515,16
7,2,2,0.8,0.631,0.544,17
7,2,2,0.8,0.608,0.389,18
7,1,2,0.9,0.902,0.902,19
7,1,1,0.7,0.61,0.754,20
7,1,2,0.8,0.747,0.765,21
7,2,2,1,0.9,0.884,22
7,2,1,0.6,0.797,1.106,23
7,1,1,0.9,0.621,1.078,24
7,1,1,0.8,0.689,0.792,25
7,2,2,0.9,0.643,0.766,26
7,2,2,0.9,0.551,0.407,27
7,1,1,0.8,0.732,0.731,28
7,1,2,0.9,0.825,0.945,29
7,2,2,0.8,0.728,1.44,30
7,2,2,0.8,1.103,0.441,31
7,1,1,0.7,0.798,0.413,32
7,1,1,0.7,1.752,0.414,33
7,2,2,0.8,0.474,0.9,34
7,2,2,0.8,0.539,0.322,35
7,1,1,0.7,0.534,0.294,36
7,2,2,0.9,0.85,1.818,37
7,2,2,0.9,1.035,0.464,38
7,1,1,0.7,0.695,0.303,39
7,1,1,0.7,0.563,0.248,40
7,1,1,0.7,0.546,0.324,41
7,2,2,0.8,0.487,0.647,42
7,2,1,0.7,0.619,0.357,43
7,1,1,0.7,0.69,0.881,44
7,1,1,0.8,0.59,1.151,45
7,1,1,1,0.564,0.752,46
7,2,2,1,0.604,0.572,47
7,2,2,0.8,0.541,1.095,48
7,1,1,0.9,0.576,0.854,49
7,1,1,0.9,0.82,0.679,50
7,2,2,0.9,0.523,0.357,51
7,2,2,0.9,0.522,0.267,52
7,1,1,0.8,0.683,0.959,53
7,2,1,0.8,0.518,0.291,54
7,2,2,0.8,0.676,0.407,55
7,1,1,0.8,0.528,0.251,56
7,1,1,0.8,0.63,0.24,57
7,1,2,0.8,0.588,0.399,58
7,2,2,0.8,0.533,0.373,59
7,2,1,0.9,0.574,0.406,60
7,2,2,0.9,0.655,0.327,61
7,1,1,0.8,0.674,1.16,62
7,2,2,0.7,0.753,1.494,63
7,1,1,0.8,1.085,0.901,64
7,2,2,0.9,0.58,1.1,65
7,1,1,0.9,0.615,0.687,66
7,1,1,0.8,0.699,0.771,67
7,2,2,0.8,0.578,0.951,68
7,2,1,0.8,0.519,0.397,69
7,2,2,0.9,0.732,0.889,70
7,1,1,0.8,0.573,0.844,71
7,1,2,0.8,0.683,0.621,72
7,1,1,0.8,0.681,2.926,73
7,2,1,0.8,0.535,2.958,74
7,1,2,0.8,0.611,0.376,75
7,2,1,0.7,0.641,0.638,76
7,2,2,0.8,0.629,0.301,77
7,2,1,0.7,0.756,0.264,78
7,1,2,0.8,0.508,0.235,79
7,1,1,0.8,0.564,0.244,80
7,2,1,0.7,0.68,0.229,81
7,1,1,0.7,0.505,0.219,82
7,1,1,0.7,0.594,0.191,83
7,1,1,0.7,0.663,0.32,84
7,2,2,0.8,0.615,0.303,85
7,2,1,0.7,0.631,0.38,86
7,2,2,0.8,0.496,0.463,87
7,1,1,0.7,0.65,0.345,88
7,2,1,0.7,0.835,1.231,89
7,2,1,0.7,0.556,0.744,90
7,1,1,0.7,0.728,0.346,91
7,2,2,0.8,0.495,0.447,92
7,2,2,0.8,0.72,0.343,93
7,1,1,0.7,0.654,0.277,94
7,1,1,0.7,0.488,0.204,95
7,1,1,0.7,0.591,0.347,96
7,2,1,0.7,0.571,0.229,97
7,2,2,0.8,0.728,0.325,98
7,2,2,0.8,0.801,0.243,99
7,1,1,0.7,0.568,0.511,100
7,1,1,0.7,0.736,0.448,101
7,1,2,0.8,0.747,0.386,1
7,1,1,0.7,0.576,0.768,2
7,2,2,0.9,0.666,1.817,3
7,1,1,0.9,0.578,1.104,4
7,2,2,1,0.567,0.911,5
7,1,1,0.7,0.635,0.839,6
7,1,1,0.7,0.66,0.518,7
7,1,1,0.7,0.721,0.933,8
7,2,2,0.8,0.505,0.56,9
7,2,2,0.7,0.785,0.582,10
7,2,2,0.7,0.515,0.589,11
7,1,1,0.7,0.645,1.227,12
7,2,2,0.7,0.645,0.581,13
7,2,1,0.6,0.65,0.936,14
7,2,1,0.6,0.562,0.822,15
7,2,1,0.7,0.639,0.514,16
7,1,1,0.7,0.683,0.544,17
7,1,1,0.6,0.598,0.817,18
7,1,1,0.6,1.138,0.733,19
7,2,1,0.7,0.658,0.283,20
7,2,2,0.7,0.639,0.308,21
7,1,1,0.7,0.594,0.39,22
7,2,1,0.7,0.584,0.729,23
7,1,1,0.7,0.529,0.448,24
7,1,1,0.7,0.541,0.286,25
7,2,1,0.6,0.456,1.255,26
7,1,1,0.6,0.642,0.445,27
7,2,1,0.5,0.779,6.206,28
7,2,1,0.6,0.855,0.863,29
7,1,1,0.6,0.93,1.074,30
7,1,2,0.7,1.201,1.038,31
7,2,1,0.5,0.724,0.887,32
7,2,2,0.6,1.044,0.814,33
7,1,1,0.7,0.667,0.892,34
7,1,2,0.7,0.771,0.712,35
7,1,2,0.7,0.693,0.544,36
7,1,1,0.6,0.887,0.505,37
7,2,2,0.7,0.72,0.313,38
7,1,1,0.6,0.536,0.36,39
7,2,2,0.7,0.598,0.352,40
7,2,2,0.7,0.431,0.321,41
7,1,1,0.6,0.489,0.357,42
7,2,2,0.7,0.59,0.286,43
7,1,1,0.6,0.526,0.46,44
7,2,2,0.7,0.69,0.304,45
7,2,2,0.7,0.806,0.408,46
7,1,1,0.5,0.78,1.079,47
7,2,2,0.7,0.579,1.402,48
7,1,1,0.6,0.675,0.391,49
7,2,2,0.7,0.611,0.359,50
7,1,1,0.9,0.762,1.302,51
7,2,2,0.8,0.64,0.89,52
7,1,1,0.7,0.883,0.736,53
7,2,2,0.8,0.623,0.358,54
7,1,1,0.8,1.07,0.767,55
7,1,1,0.8,0.499,0.326,56
7,1,1,0.8,0.576,0.35,57
7,2,2,0.8,0.721,0.41,58
7,2,1,0.7,0.747,0.453,59
7,2,2,0.8,0.72,0.27,60
7,1,1,0.7,1.068,0.876,61
7,2,1,0.7,0.639,0.563,62
7,1,1,0.7,0.492,0.292,63
7,2,2,0.8,0.72,0.442,64
7,1,1,0.7,0.579,0.318,65
7,2,2,0.8,0.748,0.278,66
7,1,1,0.7,0.518,0.262,67
7,2,2,0.8,0.665,0.328,68
7,1,1,0.7,0.489,0.321,69
7,1,2,0.8,0.618,0.41,70
7,2,1,0.7,0.573,0.225,71
7,1,1,0.7,0.504,0.297,72
7,2,1,0.7,0.492,0.268,73
7,2,1,0.7,0.511,0.256,74
7,1,1,0.7,0.457,0.243,75
7,1,2,0.8,0.541,0.596,76
7,2,1,0.7,0.72,0.349,77
7,1,1,0.7,0.517,0.292,78
7,1,1,0.7,1.186,0.373,79
7,2,1,0.7,0.597,0.4,80
7,1,1,0.7,0.72,0.236,81
7,2,2,0.8,0.645,0.306,82
7,2,2,0.8,0.555,0.229,83
7,2,1,0.7,0.524,0.243,84
7,2,2,0.8,0.628,0.205,85
7,1,1,0.7,0.637,0.408,86
7,1,1,0.8,3.396,1.947,87
7,1,1,0.8,0.686,0.974,88
7,2,1,0.8,0.735,0.503,89
7,2,2,0.8,0.606,0.403,90
7,1,2,0.8,0.451,0.202,91
7,1,1,0.8,0.602,0.272,92
7,2,2,0.7,0.275,3.848,93
7,2,1,0.7,0.792,1.165,94
7,1,2,0.7,0.564,5.739,95
7,1,1,0.7,0.516,0.424,96
7,2,2,0.7,0.754,0.388,97
7,2,1,0.6,0.729,0.664,98
7,1,1,0.6,0.571,0.369,99
7,1,1,0.6,0.495,0.228,100
7,2,2,0.6,0.502,0.293,101
7,2,2,0.7,0.599,2.217,1
7,2,2,0.7,0.976,1.443,2
7,1,1,0.9,0.638,1.977,3
7,1,1,0.7,0.611,1.307,4
7,2,2,0.9,0.687,0.972,5
7,1,1,0.8,0.627,1.181,6
7,2,2,0.9,0.678,1.411,7
7,1,1,0.7,0.772,0.962,8
7,2,2,0.8,1.063,0.718,9
7,2,2,1,0.966,0.997,10
7,1,1,1,0.613,1.324,11
7,2,2,0.8,0.575,0.887,12
7,1,2,0.8,0.552,0.661,13
7,1,1,0.9,0.603,0.814,14
7,2,2,1,0.56,0.986,15
7,1,2,0.6,0.787,1.206,16
7,2,2,0.8,0.747,0.878,17
7,1,1,0.9,0.549,0.886,18
7,2,2,0.9,0.72,0.367,19
7,2,2,0.7,0.648,0.765,20
7,1,2,0.8,0.806,0.55,21
7,1,1,0.7,0.721,0.524,22
7,2,2,0.8,1.201,0.786,23
7,2,2,0.8,0.77,0.347,24
7,1,1,0.7,0.607,0.26,25
7,2,2,0.8,0.807,0.307,26
7,1,1,0.7,0.556,0.201,27
7,2,2,0.8,0.621,0.343,28
7,1,1,0.7,0.571,0.23,29
7,1,1,0.7,0.55,0.223,30
7,2,1,0.7,0.646,0.232,31
7,1,1,0.8,0.752,1.177,32
7,1,1,0.9,0.503,0.753,33
7,1,1,0.8,0.687,1.537,34
7,2,2,0.9,0.622,0.473,35
7,2,1,0.8,0.601,0.964,36
7,2,2,0.9,0.46,0.39,37
7,1,1,0.8,0.468,0.902,38
7,2,2,0.8,0.555,0.589,39
7,2,2,0.8,0.457,0.344,40
7,1,1,0.8,0.505,0.364,41
7,1,1,0.8,0.602,0.277,42
7,1,1,0.9,0.721,0.868,43
7,2,2,0.9,0.56,0.754,44
7,2,1,0.8,0.518,0.459,45
7,1,1,0.6,0.662,0.809,46
7,2,1,0.8,0.9,1.061,47
7,1,1,0.8,1.627,1.07,48
7,1,1,0.8,1.009,0.687,49
7,2,2,0.9,0.622,0.693,50
7,2,1,0.7,0.881,0.694,51
7,1,2,0.7,0.752,0.885,52
7,2,1,0.6,0.498,0.779,53
7,1,2,0.5,0.624,0.743,54
7,2,1,0.5,0.604,0.784,55
7,2,2,0.8,0.581,0.779,56
7,1,1,0.7,0.578,0.548,57
7,1,2,0.8,0.611,1.448,58
7,2,1,0.6,0.657,0.985,59
7,1,1,0.7,0.548,0.725,60
7,2,2,0.8,0.601,0.523,61
7,1,1,0.7,0.425,0.508,62
7,2,1,0.7,0.61,0.274,63
7,1,1,0.9,0.529,0.779,64
7,2,1,0.9,0.481,0.555,65
7,1,1,0.9,0.533,0.355,66
7,2,1,0.9,0.721,0.616,67
7,2,1,0.7,1.559,0.547,68
7,1,1,0.8,0.507,2.916,69
7,1,1,0.8,0.503,0.84,70
7,2,1,0.6,0.558,0.881,71
7,1,1,0.7,0.625,0.314,72
7,1,1,0.7,0.573,0.371,73
7,2,2,0.9,0.855,0.991,74
7,2,1,0.7,0.493,0.837,75
7,2,2,0.8,0.517,0.542,76
7,1,1,0.7,0.505,0.237,77
7,1,1,0.8,0.589,0.99,78
7,2,2,0.8,0.727,0.609,79
7,2,2,0.8,0.87,0.389,80
7,1,1,0.7,0.445,0.315,81
7,1,1,0.7,0.518,0.318,82
7,2,1,0.6,0.541,0.88,83
7,1,1,0.6,0.553,0.751,84
7,1,1,0.6,0.514,0.799,85
7,2,1,0.6,0.573,0.246,86
7,2,1,0.6,0.502,0.286,87
7,2,1,0.6,0.615,0.311,88
7,1,2,0.8,0.573,0.565,89
7,1,1,0.6,0.611,0.761,90
7,1,1,0.7,0.538,0.68,91
7,2,2,0.8,0.635,0.521,92
7,2,1,0.6,0.549,0.631,93
7,1,1,0.6,0.525,0.4,94
7,1,1,0.6,3.209,0.413,95
7,2,1,0.6,0.72,1.123,96
7,2,1,0.7,0.577,1.239,97
7,2,1,0.7,0.591,0.331,98
7,1,1,0.7,0.534,0.267,99
7,2,2,0.8,0.605,0.362,100
7,1,1,0.7,0.498,0.296,101
7,1,1,0.7,0.606,1.822,1
7,1,1,0.7,0.604,1.08,2
7,2,2,0.7,0.631,0.438,3
7,1,1,0.7,0.567,0.429,4
7,2,1,0.7,0.643,0.488,5
7,2,1,0.7,0.584,0.417,6
7,1,1,0.8,0.625,0.794,7
7,1,1,0.7,0.576,0.816,8
7,2,1,0.8,0.568,0.79,9
7,1,1,0.6,0.573,0.453,10
7,1,1,0.6,0.642,0.742,11
7,1,1,0.6,0.508,0.33,12
7,2,1,0.6,0.573,0.293,13
7,2,1,0.6,0.72,0.38,14
7,2,2,0.6,0.584,0.807,15
7,2,1,0.8,0.594,1.821,16
7,1,1,0.8,0.59,0.77,17
7,2,1,0.7,0.932,0.469,18
7,1,1,0.6,1.037,0.472,19
7,1,1,0.6,0.671,0.628,20
7,2,1,0.6,0.471,0.334,21
7,1,1,0.7,0.437,0.425,22
7,2,1,0.7,0.519,0.372,23
7,2,1,0.7,0.501,0.503,24
7,1,1,0.7,0.531,0.395,25
7,2,1,0.7,0.542,0.454,26
7,1,1,0.7,0.495,0.277,27
7,1,1,0.6,0.464,0.361,28
7,1,1,0.6,0.404,0.359,29
7,2,1,0.6,0.527,0.357,30
7,1,1,0.6,0.557,0.472,31
7,2,2,0.8,0.695,0.959,32
7,2,2,0.8,0.669,0.433,33
7,1,1,0.6,0.513,0.295,34
7,1,2,0.8,1.404,0.333,35
7,1,1,0.6,0.561,0.462,36
7,2,2,0.7,1.208,0.492,37
7,2,1,0.7,0.482,0.296,38
7,1,1,0.7,0.547,0.214,39
7,2,1,0.7,0.55,0.234,40
7,2,2,0.8,0.553,0.383,41
7,2,2,0.9,0.634,0.525,42
7,1,1,0.9,0.532,1.172,43
7,1,1,0.8,0.634,0.43,44
7,2,2,0.9,0.647,0.443,45
7,2,1,0.9,0.487,0.468,46
7,1,1,0.6,0.493,0.762,47
7,2,2,0.8,0.557,0.798,48
7,1,1,0.7,0.879,0.874,49
7,1,1,0.7,2.123,0.35,50
7,2,2,0.9,0.559,0.828,51
7,2,1,0.5,0.645,0.987,52
7,1,1,0.9,0.665,1.153,53
7,1,1,0.9,0.535,0.437,54
7,2,2,0.8,0.674,0.926,55
7,2,1,0.8,0.652,1.922,56
7,1,1,0.8,0.854,0.46,57
7,1,2,0.8,0.811,1.871,58
7,1,1,0.8,0.604,0.739,59
7,2,2,0.8,0.544,0.391,60
7,1,1,0.8,0.632,0.819,61
7,2,1,0.8,0.664,0.777,62
7,2,1,0.5,0.815,1.197,63
7,1,1,0.8,0.491,0.737,64
7,2,1,0.7,0.564,0.295,65
7,2,1,0.7,0.469,0.273,66
7,1,1,0.7,0.632,0.29,67
7,2,1,0.7,0.535,0.208,68
7,2,1,0.7,0.491,0.259,69
7,1,2,0.8,0.519,0.244,70
7,2,2,0.8,0.667,0.233,71
7,1,1,0.7,0.515,0.353,72
7,1,2,0.8,0.803,0.326,73
7,1,1,0.7,0.673,0.364,74
7,2,2,0.8,0.699,0.629,75
7,2,1,0.7,0.558,0.329,76
7,2,2,0.8,0.563,0.322,77
7,1,1,0.7,0.554,0.285,78
7,2,2,0.8,0.552,0.235,79
7,1,1,0.7,0.585,0.2,80
7,1,1,0.7,0.554,0.255,81
7,1,2,0.8,0.56,0.203,82
7,2,2,0.8,1.333,1.153,83
7,1,1,0.7,0.559,0.45,84
7,2,2,0.7,0.527,0.438,85
7,1,1,0.6,0.772,0.348,86
7,2,2,0.7,1.001,0.707,87
7,1,1,0.7,0.422,0.185,88
7,2,2,0.7,0.554,0.154,89
7,2,1,0.7,0.52,0.182,90
7,2,2,0.8,0.454,0.364,91
7,1,1,0.8,0.428,0.207,92
7,1,1,0.8,0.474,0.261,93
7,2,1,0.7,0.569,0.117,94
7,1,1,0.7,0.524,0.151,95
7,2,2,0.8,0.506,0.242,96
7,1,1,0.8,0.384,0.371,97
7,1,1,0.8,0.537,0.226,98
7,1,2,0.8,0.498,0.452,99
7,2,1,0.8,0.656,0.291,100
7,2,2,0.9,0.534,0.592,1
7,1,1,0.9,0.455,0.332,2
7,2,2,0.9,0.503,0.253,3
7,2,1,0.7,0.481,0.534,4
7,1,1,0.7,0.732,0.578,5
7,2,1,0.6,0.507,0.421,6
7,2,2,0.8,0.57,0.494,7
7,1,1,0.8,0.49,0.268,8
7,2,2,0.8,0.564,0.211,9
7,1,1,0.8,0.425,0.257,10
7,1,2,0.8,0.494,0.226,11
7,1,1,0.8,0.418,0.187,12
7,2,2,0.8,0.514,0.211,13
7,2,1,0.6,0.417,0.431,14
7,1,2,0.8,0.42,0.264,15
7,1,1,0.6,0.406,0.318,16
7,2,2,0.8,0.356,0.233,17
7,1,1,0.7,0.438,0.242,18
7,2,2,0.8,0.501,0.237,19
7,2,1,0.6,0.486,0.692,20
7,1,2,0.6,0.476,0.589,21
7,1,2,0.8,0.455,0.209,22
7,2,1,0.6,0.702,0.279,23
7,1,2,0.5,0.509,0.794,24
7,1,1,0.7,0.553,0.29,25
7,2,1,0.7,0.553,0.351,26
7,1,2,0.7,0.505,0.67,27
7,2,1,0.6,0.454,0.191,28
7,2,2,0.8,0.497,0.629,29
7,1,1,0.8,0.474,0.325,30
7,2,1,0.8,0.462,0.297,31
7,1,2,0.8,0.489,0.244,32
7,2,1,0.8,0.586,0.203,33
7,2,2,0.8,0.458,0.254,34
7,1,1,0.7,0.383,0.233,35
7,2,2,0.7,0.528,0.431,36
7,1,1,0.6,0.443,0.486,37
7,1,2,0.8,0.478,0.462,38
7,1,1,0.8,0.448,0.615,39
7,1,1,0.8,0.465,0.22,40
7,2,2,0.8,0.377,0.237,41
7,2,1,0.8,0.533,0.243,42
7,1,1,0.9,0.795,0.84,43
7,2,2,0.9,0.52,0.482,44
7,2,1,0.5,0.515,0.944,45
7,1,1,0.9,0.553,0.438,46
7,1,1,0.9,0.474,0.261,47
7,2,2,0.9,0.493,0.245,48
7,1,2,0.7,0.643,0.572,49
7,1,1,0.7,0.482,0.236,50
7,2,2,0.9,0.514,0.24,51
7,2,2,0.9,0.614,0.294,52
7,2,2,0.9,0.591,0.212,53
7,1,1,0.7,0.647,0.297,54
7,1,2,0.9,0.477,0.207,55
7,2,2,0.9,0.495,0.22,56
7,1,2,0.7,0.605,0.427,57
7,2,2,0.9,0.516,0.249,58
7,1,1,0.7,0.527,0.27,59
7,2,2,0.9,0.471,0.211,60
7,2,1,0.7,0.504,0.265,61
7,1,1,0.7,0.561,0.26,62
7,2,1,0.9,0.565,0.404,63
7,2,2,0.9,0.474,0.235,64
7,1,1,0.9,0.439,0.276,65
7,1,1,0.9,0.496,0.237,66
7,2,2,0.9,0.66,0.187,67
7,2,1,0.8,0.639,0.321,68
7,1,2,0.8,0.724,0.395,69
7,2,2,0.8,0.72,0.64,70
7,2,1,0.7,0.508,0.284,71
7,2,2,0.8,0.407,0.17,72
7,1,1,0.7,0.416,0.246,73
7,1,2,0.8,0.457,0.229,74
7,2,1,0.7,0.512,0.261,75
7,1,2,0.8,0.522,0.244,76
7,1,1,0.7,0.422,0.239,77
7,1,1,0.7,0.506,0.278,78
7,1,1,0.7,0.574,0.33,79
7,2,2,0.8,0.509,0.3,80
7,2,1,0.7,0.381,0.228,81
7,2,1,0.7,0.521,0.19,82
7,1,1,0.7,0.539,0.164,83
7,1,1,0.7,0.668,0.145,84
7,2,2,0.8,0.533,0.344,85
7,2,2,0.8,0.574,0.233,86
7,1,1,0.8,0.418,0.404,87
7,2,2,0.8,0.77,0.252,88
7,2,1,0.7,0.603,0.491,89
7,2,2,0.8,0.476,0.285,90
7,1,1,0.8,0.435,0.432,91
7,1,1,0.8,0.524,0.318,92
7,1,1,0.8,0.569,0.263,93
7,2,2,0.7,0.517,0.366,94
7,1,1,0.7,0.484,0.19,95
7,1,2,0.8,0.396,0.259,96
7,2,1,0.7,0.469,0.301,97
7,1,1,0.7,0.486,0.308,98
7,1,1,0.7,0.452,0.205,99
7,2,2,0.7,0.548,0.186,100
7,2,1,0.7,0.382,0.189,101
7,1,1,0.7,0.548,0.163,102
7,1,1,0.7,0.469,0.021,103
7,2,2,0.7,0.653,0.192,104
7,2,1,0.6,0.534,0.668,105
7,1,1,0.6,0.474,0.197,106
7,2,2,0.7,0.519,0.426,107
7,1,1,0.7,0.492,0.204,108
7,2,2,0.8,0.462,0.211,109
8,2,2,0.8,1.279,0.98,1
8,2,2,0.8,1.031,0.342,2
8,2,2,0.8,0.788,0.703,3
8,1,1,0.8,0.72,0.595,4
8,2,2,0.8,1.137,0.393,5
8,1,1,0.5,1.162,0.776,6
8,1,1,0.5,1.587,0.895,7
8,1,2,0.8,1.197,0.442,8
8,2,2,0.8,0.767,1.054,9
8,2,1,0.6,1.216,1.696,10
8,2,1,0.8,1.343,0.969,11
8,1,2,0.8,1.355,1.688,12
8,1,1,0.5,1.068,0.655,13
8,2,2,0.8,0.912,1.661,14
8,1,2,0.5,1.015,1.047,15
8,1,1,0.7,1.488,1.825,16
8,2,2,0.9,0.802,1.536,17
8,2,1,0.9,1.228,0.75,18
8,1,2,0.9,1.099,0.685,19
8,2,2,0.9,1.062,0.609,20
8,1,2,0.7,1.552,2.005,21
8,1,2,0.7,1.721,0.487,22
8,2,2,0.9,1.013,0.846,23
8,1,1,0.9,0.882,0.703,24
8,2,2,0.9,0.997,0.995,25
8,2,2,0.9,1.05,0.921,26
8,2,2,0.9,1.226,0.453,27
8,2,1,0.6,1.67,1.321,28
8,1,1,0.9,0.984,0.795,29
8,1,2,0.7,1.879,1.124,30
8,1,1,0.9,1.12,0.342,31
8,1,1,0.6,1.361,1.583,32
8,2,2,0.9,0.76,0.87,33
8,2,1,1,1.505,0.9,34
8,1,1,1,1.165,0.422,35
8,1,1,0.9,1.658,0.985,36
8,1,2,0.8,1.113,1.608,37
8,2,1,0.9,1.231,1.386,38
8,2,2,0.9,1.155,1.713,39
8,1,1,0.9,0.823,1.202,40
8,1,1,0.9,1.23,0.393,41
8,2,2,0.9,1.007,0.743,42
8,1,1,1,1.392,1.47,43
8,1,1,1,0.738,0.89,44
8,2,2,1,1.009,0.472,45
8,2,2,1,1.244,0.26,46
8,1,1,1,0.675,0.608,47
8,2,2,1,0.684,0.361,48
8,2,2,0.5,2.213,2.397,49
8,2,2,1,0.807,1.535,50
8,1,1,0.6,0.689,1.584,51
8,1,1,0.9,0.72,1.028,52
8,1,1,0.5,1.513,1.398,53
8,2,2,0.9,0.765,1.724,54
8,2,2,0.9,1.062,0.377,55
8,1,1,0.9,1.05,0.362,56
8,1,1,0.9,0.992,0.477,57
8,1,1,0.5,1.577,0.897,58
8,1,1,0.5,1.293,0.877,59
8,2,2,0.8,0.722,0.887,60
8,2,2,0.6,1.533,1.741,61
8,2,2,0.8,1.29,2.169,62
8,1,2,0.6,1.536,1.297,63
8,2,2,0.9,1.266,0.373,64
8,2,2,0.9,1.035,0.448,65
8,1,1,0.7,1.423,1.378,66
8,1,2,0.5,1.907,0.846,67
8,1,1,0.8,1.399,1.709,68
8,2,2,0.9,1.566,0.575,69
8,2,1,0.8,0.919,1.141,70
8,1,1,0.9,0.766,1.198,71
8,2,2,0.8,0.893,1.405,72
8,1,1,0.7,0.945,1.436,73
8,2,1,0.8,0.909,2.16,74
8,2,2,0.9,0.983,1.266,75
8,2,1,0.7,0.79,2.984,76
8,1,1,0.9,0.903,1.186,77
8,1,1,0.9,0.63,1.552,78
8,2,2,0.9,0.749,1.432,79
8,1,2,0.9,0.625,1.044,80
8,1,1,0.9,0.629,2.383,81
8,2,2,1,0.607,1.502,82
8,1,1,0.8,0.603,1.119,83
8,1,1,0.7,1.204,1.193,84
8,2,2,0.9,0.765,1.149,85
8,2,1,0.8,0.609,1.121,86
8,1,1,0.8,0.959,1.133,87
8,2,2,0.6,0.615,1.59,88
8,2,2,0.6,0.578,0.541,89
8,1,2,0.5,0.801,1.614,90
8,1,1,0.8,0.599,1.661,91
8,2,2,0.5,0.761,1.375,92
8,2,1,0.9,0.483,2.216,93
8,1,2,0.8,0.623,1.346,94
8,1,1,0.8,0.813,0.79,95
8,2,2,0.8,0.679,1.332,96
8,1,1,0.9,0.739,1.406,97
8,2,2,0.9,0.578,1.41,98
8,1,1,0.6,0.72,1.774,99
8,2,1,0.6,0.861,1.263,100
8,1,1,0.6,0.873,1.646,101
8,2,2,0.9,0.926,4.453,1
8,1,1,0.9,1.016,0.472,2
8,2,1,0.7,1.326,0.926,3
8,1,1,0.6,1.504,1.011,4
8,2,2,0.8,1.158,0.916,5
8,2,2,0.9,1.248,1.056,6
8,1,1,0.8,1.081,0.934,7
8,1,1,0.5,1.592,0.461,8
8,2,2,0.7,1.585,1.692,9
8,1,1,0.9,1.029,0.504,10
8,2,2,0.5,0.956,1.049,11
8,1,1,0.9,0.629,0.784,12
8,1,1,0.9,1.054,0.39,13
8,1,2,0.7,0.783,1.098,14
8,2,2,0.9,0.59,0.273,15
8,1,1,0.7,0.599,0.316,16
8,2,2,0.7,0.536,2.888,17
8,2,2,0.9,0.93,0.826,18
8,2,1,0.9,0.851,1.019,19
8,1,2,0.7,0.647,2.823,20
8,2,2,0.9,0.972,2.428,21
8,2,1,0.8,0.824,0.947,22
8,2,2,0.9,0.72,1.249,23
8,2,2,0.9,0.935,0.671,24
8,1,1,0.9,0.758,1.572,25
8,1,1,0.9,0.64,1.605,26
8,1,1,0.9,0.75,1.249,27
8,1,1,0.7,0.696,1.711,28
8,2,2,0.9,0.72,1.26,29
8,2,2,0.9,0.592,1.693,30
8,1,2,0.5,2.047,1.575,31
8,2,2,0.9,1.165,0.55,32
8,2,1,0.7,1.927,1.047,33
8,1,1,0.5,1.28,0.502,34
8,1,1,0.8,1.474,1.391,35
8,2,2,0.9,1.355,0.905,36
8,2,1,0.7,1.84,1.037,37
8,1,1,0.8,1.729,0.954,38
8,2,2,0.7,0.87,1.552,39
8,2,2,0.6,1.162,1.039,40
8,1,1,0.9,2.158,2.5,41
8,1,1,0.7,1.043,1.256,42
8,1,1,0.9,1.1,1.047,43
8,2,1,0.5,2.239,0.403,44
8,1,1,0.7,1.217,1.562,45
8,1,1,0.8,0.95,1.505,46
8,2,2,0.9,1.074,1.744,47
8,1,1,0.9,0.665,1.676,48
8,2,2,0.9,1.941,2.488,49
8,2,1,0.8,1.168,1.471,50
8,1,1,0.8,0.665,1.788,51
8,2,2,0.8,0.688,2.112,52
8,1,1,0.8,0.761,1.127,53
8,1,1,0.9,0.683,1.077,54
8,2,2,0.8,0.929,0.977,55
8,2,1,0.8,0.88,1.141,56
8,1,1,0.8,0.671,1.177,57
8,1,1,0.8,0.606,1.189,58
8,2,1,0.6,0.543,3.929,59
8,1,1,0.6,1.576,0.737,60
8,2,2,0.6,2.556,1.632,61
8,2,2,0.8,1.134,0.935,62
8,1,2,0.6,1.472,1.013,63
8,2,1,0.5,1.3,1.703,64
8,2,2,0.8,1.224,0.331,65
8,1,2,0.8,0.855,0.391,66
8,1,1,0.5,0.594,0.864,67
8,1,1,0.7,0.918,1.643,68
8,1,1,0.7,1.469,2.232,69
8,2,1,0.7,1.94,1.519,70
8,2,2,0.9,1.091,1.14,71
8,2,1,0.5,1.546,1.069,72
8,1,2,0.7,1.676,1.017,73
8,2,1,0.6,1.251,1.363,74
8,1,1,0.7,1.22,0.943,75
8,2,2,0.8,0.912,2.542,76
8,2,1,0.6,0.877,1.066,77
8,1,1,0.9,1.331,1.595,78
8,2,2,0.9,0.743,1.602,79
8,2,2,0.9,0.759,2.036,80
8,1,1,0.8,0.802,2.056,81
8,1,1,0.7,1.239,1.652,82
8,1,1,0.7,0.947,1.662,83
8,2,2,0.8,0.677,1.61,84
8,2,2,0.8,1.038,1.043,85
8,2,1,0.5,0.773,1.773,86
8,1,1,0.7,0.609,1.289,87
8,1,2,0.6,0.747,1.613,88
8,1,2,0.5,0.799,2.668,89
8,1,2,0.8,0.776,1.664,90
8,2,1,0.8,0.892,0.852,91
8,1,1,0.6,0.837,0.931,92
8,2,2,0.8,0.793,1.095,93
8,1,1,0.8,0.786,0.533,94
8,2,1,0.5,1.561,0.454,95
8,2,2,0.8,0.549,1.688,96
8,1,1,0.5,0.793,0.823,97
8,1,1,0.8,0.688,1.208,98
8,2,1,0.8,0.844,0.562,99
8,2,2,0.8,1.034,0.6,100
8,2,2,0.8,1.137,0.473,101
8,2,1,0.7,1.754,1.248,1
8,1,1,0.8,0.889,0.753,2
8,1,2,0.9,0.893,1.333,3
8,1,1,0.8,0.74,1.086,4
8,1,2,0.8,1.373,1.133,5
8,2,2,0.8,1.182,0.825,6
8,2,2,0.9,0.834,0.984,7
8,1,1,0.8,0.902,1.193,8
8,1,2,0.8,0.874,1.24,9
8,2,2,0.9,0.978,1.356,10
8,1,2,0.9,1.363,1.36,11
8,2,2,0.9,1.572,0.797,12
8,2,1,0.8,1.006,2.19,13
8,1,2,0.9,0.773,2.229,14
8,1,1,0.6,0.977,1.633,15
8,1,1,0.7,1.312,1.549,16
8,1,2,0.5,0.774,1.551,17
8,1,1,0.8,0.896,1.232,18
8,2,2,0.9,0.668,1.351,19
8,2,2,0.9,0.616,0.808,20
8,2,2,0.9,0.807,0.983,21
8,2,2,0.9,0.624,0.698,22
8,1,1,0.7,0.966,1.742,23
8,2,2,0.9,0.736,1.264,24
8,2,2,0.9,0.601,0.695,25
8,2,1,0.5,0.96,1.645,26
8,1,1,0.8,0.898,1.921,27
8,1,2,0.6,0.729,2.08,28
8,2,1,0.8,0.783,1.97,29
8,1,1,0.8,1.065,1.155,30
8,1,1,0.8,1.053,1.069,31
8,1,2,0.8,0.727,1.046,32
8,1,1,0.6,1.503,1.371,33
8,2,2,0.9,1.063,1.529,34
8,1,1,0.8,0.88,0.909,35
8,2,2,0.9,0.983,1.569,36
8,2,2,0.9,0.893,1.637,37
8,2,2,0.8,1.497,0.962,38
8,1,1,0.9,0.933,2.11,39
8,2,2,0.9,0.812,0.58,40
8,2,2,0.9,1.182,0.376,41
8,1,2,0.9,1.185,0.316,42
8,2,1,0.7,1.467,0.886,43
8,2,2,0.7,1.343,0.962,44
8,1,1,0.5,1.296,0.481,45
8,1,1,0.8,1.663,0.634,46
8,2,2,0.5,1.629,0.529,47
8,2,2,0.5,1.188,2.047,48
8,1,1,0.8,0.833,1.158,49
8,1,1,0.9,0.893,1.341,50
8,2,1,0.7,1.492,1.116,51
8,1,1,0.5,1.517,1.123,52
8,1,1,0.5,1.295,0.279,53
8,2,2,0.5,1.112,0.326,54
8,1,1,0.5,0.762,0.423,55
8,1,1,0.5,0.991,0.469,56
8,2,2,0.5,0.643,0.393,57
8,1,1,0.5,0.735,0.919,58
8,2,2,0.8,1.376,0.952,59
8,1,1,0.6,1.252,1.509,60
8,2,2,0.9,0.72,0.806,61
8,2,2,0.9,0.786,0.741,62
8,2,1,0.5,0.851,1.003,63
8,1,1,0.8,0.767,0.911,64
8,2,2,0.9,0.608,0.864,65
8,1,1,0.5,5.035,0.241,66
8,1,1,0.5,0.916,0.393,67
8,2,2,0.8,0.62,0.607,68
8,1,1,0.6,0.64,1.334,69
8,2,2,0.5,0.957,0.418,70
8,1,1,0.5,1.334,0.222,71
8,2,1,0.5,0.601,0.246,72
8,1,1,0.5,0.57,0.65,73
8,1,1,0.5,0.758,0.355,74
8,1,2,0.5,1.122,0.271,75
8,2,2,0.5,0.899,0.245,76
8,2,2,0.9,1.844,0.18,77
8,2,1,0.9,0.933,0.541,78
8,1,2,0.5,0.814,1.646,79
8,2,1,0.5,1.741,0.248,80
8,1,1,0.9,1.494,0.759,81
8,1,1,0.9,1.33,0.539,82
8,2,2,0.9,1.177,0.217,83
8,1,2,0.9,1.125,1.477,84
8,2,1,0.5,1.036,0.617,85
8,2,2,0.9,0.733,0.725,86
8,2,2,0.9,0.72,0.292,87
8,1,1,0.9,0.655,0.743,88
8,1,1,0.9,0.734,1.174,89
8,2,2,0.9,0.689,0.521,90
8,2,2,0.9,0.579,0.357,91
8,1,1,0.9,0.66,0.511,92
8,2,2,0.9,0.563,0.247,93
8,1,2,0.9,0.63,0.24,94
8,2,1,0.5,1.719,0.453,95
8,2,2,0.9,0.958,0.315,96
8,2,1,0.7,1.49,1.418,97
8,1,2,0.8,3.329,2.399,98
8,1,1,0.7,1.272,1.398,99
8,2,2,0.8,0.596,0.898,100
8,1,1,0.5,0.632,0.397,101
8,1,2,0.6,1.553,1.422,1
8,1,1,0.5,1.67,0.472,2
8,2,2,0.5,0.772,1.284,3
8,2,1,0.5,1.429,0.352,4
8,1,1,0.5,1.084,0.377,5
8,1,1,0.5,1.56,0.277,6
8,2,2,0.5,1.598,0.276,7
8,2,2,0.8,1.503,0.682,8
8,1,1,0.8,1.611,0.884,9
8,1,2,0.8,1.352,0.405,10
8,2,2,0.9,1.054,0.486,11
8,1,1,0.8,0.829,0.656,12
8,1,2,0.9,0.942,0.824,13
8,1,1,0.8,0.849,0.786,14
8,2,2,0.8,0.904,0.619,15
8,2,2,0.9,0.634,0.799,16
8,2,2,0.9,1.064,0.562,17
8,1,1,0.8,0.751,0.993,18
8,1,2,0.8,0.797,1.194,19
8,1,1,0.7,1.062,1.201,20
8,2,2,0.5,0.725,1.925,21
8,2,2,0.8,1.113,0.855,22
8,2,2,0.9,0.72,1.456,23
8,1,2,0.6,3.716,1.528,24
8,2,2,0.9,0.617,1.625,25
8,1,1,0.9,0.872,1.933,26
8,2,2,0.7,1.124,1.266,27
8,2,2,0.9,0.821,1.168,28
8,2,2,0.9,0.982,0.337,29
8,1,2,0.5,1.666,0.693,30
8,1,1,0.7,0.678,1.124,31
8,1,2,0.7,0.72,0.733,32
8,2,2,0.8,0.862,0.769,33
8,1,1,0.5,0.587,0.725,34
8,2,2,0.9,0.52,0.79,35
8,2,1,0.7,0.85,1.234,36
8,1,2,0.7,0.67,1.953,37
8,2,2,0.9,1.103,0.746,38
8,1,1,0.8,0.821,1.112,39
8,2,2,0.8,0.666,0.844,40
8,1,1,0.8,1.069,0.672,41
8,2,2,0.9,0.72,0.53,42
8,1,2,0.9,0.869,1.704,43
8,1,2,0.7,3.276,1.126,44
8,1,2,0.5,3.356,0.786,45
8,1,2,0.7,0.619,1.261,46
8,2,2,0.5,0.636,0.321,47
8,2,2,0.9,0.653,0.613,48
8,2,1,0.5,1.881,0.159,49
8,1,1,0.5,0.984,0.226,50
8,2,2,0.5,0.678,0.836,51
8,1,1,0.8,1.031,0.772,52
8,2,2,0.9,0.942,0.504,53
8,1,1,0.5,1.705,0.485,54
8,2,2,0.8,0.739,0.878,55
8,2,2,0.7,0.695,1.471,56
8,1,1,0.8,1.099,0.654,57
8,1,1,0.8,0.69,1.018,58
8,2,2,0.9,1.262,0.728,59
8,2,2,0.9,1.308,0.599,60
8,1,1,0.7,1.168,1.329,61
8,1,1,0.7,1.29,0.906,62
8,2,2,0.8,1.067,0.974,63
8,2,2,0.9,1.042,1.519,64
8,1,1,0.8,0.795,1.865,65
8,1,1,0.7,1.36,0.925,66
8,1,1,0.6,1.311,2.089,67
8,1,1,0.9,1.141,0.641,68
8,1,2,0.7,1.415,0.975,69
8,2,2,0.9,0.787,0.83,70
8,2,2,0.5,1.9,0.831,71
8,2,2,0.5,1.643,0.473,72
8,2,2,0.9,1.146,0.34,73
8,2,2,0.9,1.603,0.272,74
8,1,1,0.7,1.295,0.407,75
8,2,2,0.8,0.64,0.485,76
8,2,2,0.8,0.759,0.94,77
8,2,1,0.9,1.142,1.32,78
